Projekt Aerodynamik Ãœbung CPM3
P_amb in [Pa]:  102415 T_amb in [K]: 297
Channel 1-3 HCL Druckdaten [V] 
2.477	2.560	2.616
2.478	2.555	2.607
2.471	2.560	2.594
2.478	2.560	2.589
2.482	2.560	2.592
2.485	2.560	2.597
2.481	2.562	2.599
2.486	2.562	2.594
2.480	2.560	2.595
2.489	2.562	2.606
2.483	2.555	2.611
2.487	2.560	2.611
2.482	2.560	2.621
2.482	2.562	2.635
2.487	2.562	2.648
2.477	2.560	2.652
2.479	2.560	2.660
2.480	2.557	2.653
2.473	2.562	2.646
2.482	2.559	2.635
2.483	2.560	2.625
2.473	2.561	2.619
2.477	2.558	2.606
2.482	2.559	2.591
2.482	2.557	2.592
2.472	2.560	2.606
2.477	2.555	2.616
2.477	2.558	2.632
2.473	2.560	2.630
2.479	2.560	2.634
2.468	2.560	2.632
2.470	2.560	2.645
2.470	2.560	2.645
2.474	2.559	2.653
2.474	2.563	2.640
2.480	2.555	2.640
2.477	2.560	2.647
2.487	2.560	2.655
2.484	2.560	2.648
2.477	2.554	2.633
2.474	2.558	2.638
2.477	2.552	2.641
2.478	2.555	2.640
2.472	2.558	2.627
2.480	2.556	2.612
2.477	2.555	2.611
2.470	2.555	2.611
2.473	2.552	2.613
2.468	2.555	2.611
2.480	2.557	2.616
2.477	2.556	2.616
2.479	2.560	2.614
2.475	2.560	2.614
2.482	2.554	2.621
2.477	2.560	2.639
2.475	2.557	2.640
2.478	2.560	2.633
2.472	2.560	2.635
2.477	2.559	2.647
2.480	2.561	2.641
2.477	2.563	2.631
2.479	2.554	2.612
2.477	2.555	2.602
2.475	2.557	2.592
2.478	2.553	2.581
2.475	2.556	2.554
2.470	2.548	2.539
2.477	2.555	2.537
2.473	2.558	2.543
2.470	2.558	2.564
2.474	2.555	2.592
2.482	2.555	2.594
2.474	2.555	2.606
2.479	2.555	2.609
2.484	2.560	2.604
2.478	2.559	2.609
2.482	2.560	2.611
2.485	2.560	2.608
2.475	2.558	2.593
2.482	2.560	2.587
2.477	2.555	2.581
2.477	2.555	2.594
2.485	2.559	2.607
2.476	2.560	2.607
2.476	2.553	2.608
2.480	2.560	2.594
2.484	2.560	2.581
2.477	2.557	2.577
2.479	2.557	2.577
2.477	2.560	2.574
2.480	2.555	2.582
2.480	2.557	2.587
2.479	2.555	2.606
2.481	2.558	2.611
2.484	2.557	2.618
2.484	2.558	2.619
2.486	2.547	2.616
2.491	2.557	2.612
2.494	2.560	2.604
2.489	2.558	2.587
2.484	2.559	2.575
2.490	2.560	2.572
2.491	2.557	2.582
2.494	2.557	2.584
2.497	2.557	2.582
2.492	2.560	2.579
2.484	2.562	2.589
2.485	2.560	2.598
2.482	2.555	2.599
2.478	2.555	2.599
2.474	2.555	2.597
2.477	2.557	2.574
2.477	2.557	2.566
2.480	2.555	2.577
2.479	2.554	2.577
2.482	2.560	2.577
2.470	2.557	2.559
2.477	2.553	2.550
2.480	2.555	2.549
2.481	2.562	2.560
2.482	2.558	2.555
2.488	2.555	2.555
2.487	2.555	2.557
2.484	2.552	2.554
2.477	2.557	2.551
2.482	2.558	2.560
2.484	2.555	2.588
2.477	2.560	2.594
2.485	2.558	2.602
2.477	2.555	2.586
2.482	2.556	2.593
2.480	2.554	2.583
2.470	2.553	2.580
2.482	2.556	2.557
2.477	2.560	2.545
2.479	2.560	2.549
2.471	2.560	2.546
2.475	2.552	2.532
2.472	2.552	2.525
2.472	2.549	2.528
2.480	2.558	2.530
2.480	2.552	2.544
2.476	2.553	2.551
2.482	2.553	2.540
2.482	2.551	2.525
2.478	2.548	2.518
2.482	2.557	2.513
2.477	2.557	2.512
2.480	2.555	2.517
2.475	2.560	2.537
2.487	2.555	2.551
2.479	2.555	2.564
2.482	2.554	2.559
2.492	2.555	2.558
2.488	2.558	2.560
2.497	2.557	2.560
2.494	2.554	2.554
2.489	2.551	2.544
2.488	2.552	2.530
2.487	2.555	2.522
2.492	2.558	2.531
2.489	2.550	2.533
2.494	2.555	2.538
2.495	2.557	2.543
2.487	2.555	2.545
2.497	2.550	2.553
2.482	2.560	2.560
2.482	2.555	2.562
2.482	2.563	2.557
2.478	2.559	2.557
2.482	2.557	2.553
2.477	2.557	2.552
2.485	2.560	2.550
2.485	2.560	2.560
2.489	2.557	2.572
2.487	2.552	2.590
2.485	2.565	2.599
2.487	2.560	2.615
2.488	2.559	2.616
2.494	2.558	2.631
2.487	2.556	2.638
2.489	2.557	2.631
2.482	2.558	2.621
2.484	2.557	2.619
2.485	2.557	2.621
2.484	2.561	2.630
2.489	2.560	2.629
2.489	2.554	2.619
2.495	2.554	2.601
2.499	2.557	2.591
2.500	2.560	2.580
2.500	2.558	2.585
2.496	2.560	2.592
2.502	2.557	2.583
2.501	2.556	2.569
2.504	2.557	2.557
2.505	2.557	2.545
2.506	2.557	2.545
2.502	2.558	2.539
2.505	2.554	2.540
2.494	2.552	2.540
2.496	2.555	2.533
2.496	2.555	2.530
2.489	2.560	2.539
2.489	2.551	2.549
2.491	2.549	2.572
2.492	2.553	2.573
2.480	2.552	2.577
2.487	2.554	2.589
2.492	2.560	2.591
2.499	2.555	2.582
2.507	2.555	2.567
2.506	2.555	2.559
2.506	2.558	2.570
2.504	2.555	2.577
2.502	2.560	2.584
2.502	2.551	2.590
2.500	2.560	2.602
2.501	2.557	2.595
2.496	2.558	2.594
2.496	2.555	2.584
2.499	2.550	2.574
2.501	2.558	2.571
2.491	2.554	2.579
2.494	2.560	2.577
2.497	2.554	2.575
2.498	2.557	2.560
2.495	2.555	2.552
2.496	2.557	2.530
2.497	2.550	2.523
2.501	2.552	2.516
2.494	2.554	2.511
2.496	2.552	2.525
2.492	2.555	2.537
2.497	2.551	2.534
2.494	2.550	2.551
2.492	2.550	2.544
2.489	2.555	2.540
2.490	2.550	2.539
2.489	2.557	2.523
2.487	2.551	2.518
2.484	2.558	2.515
2.486	2.555	2.526
2.487	2.546	2.528
2.486	2.555	2.527
2.491	2.552	2.524
2.484	2.556	2.523
2.484	2.554	2.516
2.489	2.558	2.516
2.499	2.552	2.530
2.496	2.555	2.531
2.487	2.561	2.525
2.492	2.557	2.527
2.493	2.555	2.525
2.493	2.557	2.523
2.492	2.552	2.525
2.497	2.555	2.528
2.492	2.549	2.531
2.499	2.550	2.537
2.493	2.554	2.540
2.492	2.559	2.540
2.491	2.555	2.542
2.489	2.552	2.552
2.494	2.555	2.560
2.489	2.555	2.560
2.487	2.557	2.560
2.488	2.557	2.572
2.485	2.559	2.569
2.487	2.552	2.566
2.481	2.553	2.562
2.487	2.558	2.550
2.495	2.552	2.531
2.493	2.552	2.523
2.486	2.547	2.532
2.482	2.548	2.547
2.487	2.552	2.562
2.482	2.557	2.574
2.488	2.552	2.585
2.492	2.558	2.587
2.496	2.550	2.590
2.497	2.555	2.574
2.497	2.552	2.562
2.491	2.560	2.555
2.497	2.555	2.545
2.489	2.550	2.555
2.489	2.555	2.570
2.488	2.557	2.570
2.497	2.552	2.579
2.492	2.549	2.576
2.495	2.550	2.576
2.495	2.550	2.562
2.496	2.550	2.560
2.499	2.545	2.559
2.499	2.548	2.551
2.496	2.550	2.552
2.499	2.551	2.542
2.497	2.550	2.552
2.497	2.550	2.567
2.485	2.550	2.568
2.493	2.552	2.567
2.494	2.557	2.560
2.491	2.555	2.559
2.491	2.549	2.551
2.491	2.552	2.553
2.491	2.548	2.560
2.487	2.547	2.569
2.492	2.547	2.568
2.495	2.553	2.567
2.487	2.551	2.574
2.494	2.545	2.586
2.489	2.554	2.602
2.492	2.548	2.611
2.496	2.550	2.611
2.495	2.550	2.609
2.492	2.550	2.594
2.499	2.557	2.588
2.495	2.550	2.582
2.499	2.545	2.585
2.489	2.550	2.574
2.484	2.553	2.576
2.496	2.551	2.574
2.499	2.552	2.581
2.499	2.557	2.593
2.497	2.548	2.594
2.496	2.550	2.608
2.500	2.548	2.619
2.493	2.551	2.623
2.494	2.556	2.618
2.492	2.545	2.621
2.487	2.550	2.626
2.489	2.548	2.619
2.486	2.550	2.619
2.492	2.543	2.595
2.489	2.552	2.589
2.488	2.543	2.585
2.482	2.552	2.590
2.484	2.549	2.584
2.487	2.550	2.579
2.484	2.552	2.579
2.487	2.553	2.565
2.483	2.548	2.577
2.489	2.552	2.590
2.492	2.557	2.589
2.482	2.550	2.592
2.487	2.558	2.580
2.489	2.555	2.574
2.489	2.552	2.572
2.489	2.550	2.565
2.491	2.547	2.560
2.491	2.548	2.557
2.489	2.549	2.557
2.487	2.548	2.554
2.492	2.550	2.549
2.494	2.542	2.550
2.492	2.552	2.550
2.497	2.550	2.558
2.487	2.551	2.564
2.482	2.555	2.567
2.479	2.552	2.566
2.481	2.547	2.559
2.482	2.554	2.569
2.483	2.550	2.575
2.485	2.548	2.567
2.489	2.549	2.559
2.487	2.549	2.550
2.486	2.543	2.545
2.486	2.553	2.537
2.483	2.551	2.537
2.486	2.550	2.542
2.489	2.545	2.550
2.490	2.552	2.557
2.484	2.544	2.567
2.482	2.547	2.577
2.492	2.553	2.578
2.494	2.552	2.572
2.489	2.552	2.572
2.489	2.549	2.572
2.494	2.562	2.561
2.489	2.550	2.560
2.483	2.555	2.567
2.483	2.550	2.565
2.487	2.547	2.560
2.485	2.552	2.555
2.489	2.548	2.540
2.492	2.552	2.534
2.491	2.548	2.536
2.487	2.550	2.540
2.482	2.550	2.545
2.493	2.547	2.545
2.493	2.551	2.542
2.492	2.552	2.551
2.487	2.557	2.548
2.489	2.558	2.570
2.487	2.552	2.575
2.490	2.548	2.576
2.487	2.550	2.576
2.487	2.550	2.596
2.489	2.550	2.594
2.486	2.552	2.579
2.485	2.549	2.577
2.479	2.551	2.566
2.482	2.553	2.559
2.474	2.545	2.563
2.472	2.550	2.565
2.487	2.550	2.573
2.490	2.553	2.574
2.486	2.555	2.576
2.492	2.555	2.574
2.497	2.557	2.571
2.484	2.558	2.575
2.485	2.555	2.577
2.487	2.552	2.574
2.491	2.552	2.569
2.492	2.549	2.579
2.495	2.552	2.587
2.491	2.550	2.584
2.486	2.550	2.579
2.484	2.555	2.574
2.489	2.555	2.574
2.484	2.552	2.587
2.479	2.552	2.604
2.482	2.550	2.602
2.477	2.550	2.599
2.475	2.551	2.594
2.478	2.550	2.571
2.476	2.552	2.562
2.474	2.549	2.550
2.475	2.550	2.545
2.472	2.552	2.544
2.482	2.550	2.550
2.477	2.553	2.550
2.480	2.552	2.541
2.478	2.550	2.548
2.483	2.548	2.544
2.477	2.545	2.542
2.475	2.554	2.540
2.480	2.552	2.537
2.487	2.551	2.552
2.487	2.555	2.560
2.482	2.544	2.551
2.479	2.555	2.545
2.485	2.554	2.550
2.490	2.553	2.553
2.488	2.552	2.559
2.482	2.550	2.552
2.482	2.546	2.555
2.479	2.547	2.554
2.484	2.545	2.557
2.482	2.549	2.557
2.480	2.544	2.567
2.483	2.554	2.575
2.489	2.548	2.574
2.482	2.548	2.582
2.484	2.545	2.586
2.490	2.551	2.602
2.484	2.547	2.609
2.482	2.550	2.607
2.479	2.547	2.589
2.479	2.550	2.572
2.477	2.555	2.570
2.478	2.553	2.576
2.474	2.556	2.581
2.472	2.553	2.594
2.477	2.546	2.604
2.477	2.552	2.606
2.480	2.551	2.600
2.475	2.558	2.593
2.477	2.555	2.584
2.475	2.550	2.594
2.476	2.547	2.594
2.478	2.550	2.587
2.484	2.555	2.574
2.475	2.552	2.562
2.479	2.554	2.565
2.472	2.556	2.572
2.472	2.556	2.564
2.477	2.552	2.571
2.475	2.550	2.575
2.471	2.555	2.580
2.469	2.548	2.584
2.470	2.550	2.589
2.470	2.543	2.590
2.464	2.545	2.580
2.455	2.549	2.571
2.460	2.545	2.562
2.470	2.549	2.562
2.473	2.550	2.559
2.469	2.551	2.574
2.472	2.551	2.574
2.473	2.550	2.575
2.482	2.548	2.570
2.482	2.545	2.570
2.480	2.545	2.579
2.477	2.552	2.574
2.477	2.544	2.581
2.477	2.545	2.584
2.483	2.550	2.584
2.479	2.550	2.569
2.477	2.555	2.574
2.475	2.553	2.562
2.472	2.544	2.550
2.470	2.551	2.543
2.469	2.552	2.548
2.479	2.550	2.547
2.484	2.552	2.552
2.480	2.555	2.546
2.478	2.553	2.546
2.482	2.550	2.540
2.482	2.550	2.553
2.482	2.553	2.560
2.480	2.549	2.552
2.477	2.561	2.542
2.477	2.551	2.548
2.475	2.555	2.539
2.478	2.560	2.541
2.467	2.548	2.529
2.470	2.552	2.522
2.477	2.555	2.525
2.473	2.555	2.528
2.470	2.555	2.540
2.470	2.553	2.548
2.467	2.547	2.552
2.467	2.550	2.550
2.470	2.550	2.550
2.467	2.544	2.540
2.472	2.550	2.556
2.477	2.555	2.555
2.470	2.552	2.562
2.472	2.550	2.562
2.469	2.552	2.564
2.470	2.552	2.554
2.477	2.552	2.539
2.475	2.550	2.532
2.471	2.547	2.532
2.474	2.546	2.536
2.475	2.546	2.536
2.474	2.552	2.547
2.478	2.546	2.555
2.477	2.550	2.554
2.474	2.544	2.540
2.472	2.548	2.524
2.473	2.550	2.530
2.472	2.550	2.531
2.474	2.547	2.534
2.474	2.547	2.537
2.475	2.550	2.540
2.470	2.548	2.528
2.470	2.545	2.531
2.464	2.549	2.533
2.462	2.551	2.530
2.468	2.552	2.524
2.464	2.552	2.525
2.465	2.550	2.534
2.467	2.545	2.547
2.469	2.552	2.561
2.470	2.557	2.562
2.472	2.555	2.555
2.470	2.550	2.540
2.469	2.553	2.542
2.472	2.551	2.552
2.466	2.553	2.540
2.460	2.551	2.525
2.468	2.545	2.518
2.468	2.550	2.518
2.473	2.548	2.521
2.470	2.550	2.532
2.469	2.551	2.546
2.470	2.548	2.550
2.470	2.550	2.560
2.469	2.552	2.568
2.475	2.557	2.581
2.473	2.552	2.576
2.475	2.553	2.562
2.478	2.545	2.550
2.477	2.547	2.540
2.477	2.550	2.539
2.472	2.547	2.542
2.475	2.545	2.540
2.475	2.545	2.540
2.470	2.545	2.545
2.473	2.545	2.544
2.475	2.551	2.545
2.470	2.547	2.532
2.469	2.540	2.526
2.465	2.540	2.515
2.467	2.545	2.515
2.468	2.540	2.514
2.468	2.542	2.511
2.467	2.547	2.512
2.465	2.545	2.517
2.455	2.547	2.542
2.465	2.548	2.547
2.467	2.552	2.549
2.469	2.544	2.549
2.467	2.545	2.552
2.468	2.543	2.554
2.468	2.546	2.540
2.470	2.544	2.530
2.473	2.542	2.520
2.475	2.547	2.527
2.470	2.542	2.541
2.470	2.549	2.538
2.470	2.545	2.545
2.475	2.545	2.542
2.470	2.540	2.525
2.467	2.545	2.522
2.462	2.545	2.525
2.465	2.540	2.526
2.472	2.541	2.532
2.470	2.544	2.532
2.470	2.547	2.523
2.470	2.545	2.535
2.469	2.550	2.540
2.473	2.545	2.540
2.467	2.552	2.533
2.472	2.547	2.535
2.470	2.550	2.528
2.470	2.542	2.529
2.460	2.542	2.531
2.465	2.540	2.530
2.457	2.546	2.523
2.457	2.542	2.515
2.458	2.549	2.524
2.457	2.545	2.520
2.455	2.548	2.518
2.463	2.535	2.515
2.464	2.542	2.515
2.465	2.542	2.508
2.460	2.540	2.511
2.462	2.545	2.528
2.460	2.545	2.535
2.458	2.547	2.559
2.454	2.540	2.570
2.465	2.549	2.574
2.463	2.540	2.576
2.469	2.542	2.579
2.460	2.551	2.578
2.470	2.542	2.589
2.464	2.548	2.587
2.472	2.545	2.580
2.470	2.545	2.587
2.464	2.542	2.580
2.468	2.546	2.574
2.463	2.543	2.566
2.462	2.543	2.552
2.467	2.543	2.539
2.470	2.548	2.540
2.472	2.541	2.540
2.472	2.544	2.558
2.468	2.545	2.570
2.467	2.543	2.574
2.475	2.543	2.569
2.478	2.545	2.581
2.474	2.550	2.590
2.477	2.545	2.596
2.474	2.541	2.594
2.469	2.545	2.585
2.471	2.543	2.581
2.468	2.544	2.578
2.465	2.545	2.577
2.467	2.547	2.569
2.470	2.550	2.564
2.467	2.542	2.582
2.463	2.550	2.580
2.467	2.550	2.577
2.469	2.542	2.582
2.469	2.543	2.577
2.470	2.548	2.574
2.468	2.543	2.575
2.472	2.540	2.577
2.468	2.549	2.578
2.464	2.550	2.574
2.467	2.550	2.574
2.465	2.542	2.574
2.470	2.542	2.569
2.470	2.540	2.561
2.470	2.548	2.559
2.468	2.543	2.562
2.472	2.540	2.569
2.475	2.540	2.574
2.475	2.546	2.558
2.478	2.553	2.549
2.475	2.539	2.546
2.480	2.541	2.543
2.480	2.542	2.542
2.475	2.547	2.539
2.474	2.548	2.534
2.475	2.545	2.532
2.470	2.548	2.530
2.472	2.545	2.541
2.482	2.545	2.550
2.480	2.541	2.555
2.484	2.542	2.553
2.486	2.543	2.570
2.489	2.548	2.574
2.487	2.548	2.579
2.492	2.537	2.587
2.490	2.543	2.586
2.484	2.548	2.577
2.482	2.545	2.576
2.480	2.542	2.581
2.479	2.548	2.579
2.482	2.541	2.579
2.475	2.550	2.565
2.477	2.545	2.561
2.472	2.545	2.550
2.475	2.543	2.558
2.479	2.547	2.570
2.475	2.544	2.574
2.472	2.551	2.564
2.472	2.545	2.560
2.475	2.550	2.559
2.477	2.548	2.574
2.480	2.548	2.587
2.477	2.545	2.589
2.480	2.545	2.579
2.480	2.548	2.584
2.480	2.548	2.590
2.477	2.543	2.594
2.475	2.547	2.594
2.477	2.539	2.586
2.475	2.548	2.573
2.469	2.548	2.576
2.475	2.541	2.597
2.478	2.542	2.600
2.484	2.542	2.593
2.480	2.548	2.577
2.473	2.551	2.557
2.487	2.550	2.553
2.477	2.550	2.557
2.477	2.547	2.560
2.473	2.552	2.556
2.472	2.552	2.562
2.476	2.548	2.572
2.474	2.548	2.575
2.470	2.547	2.575
2.469	2.544	2.575
2.475	2.548	2.572
2.478	2.545	2.569
2.485	2.545	2.569
2.480	2.544	2.576
2.474	2.545	2.572
2.480	2.544	2.564
2.472	2.547	2.565
2.477	2.549	2.557
2.475	2.535	2.549
2.482	2.540	2.545
2.479	2.545	2.535
2.473	2.545	2.537
2.464	2.548	2.532
2.470	2.547	2.537
2.473	2.547	2.535
2.465	2.551	2.538
2.467	2.548	2.539
2.470	2.545	2.557
2.462	2.546	2.552
2.467	2.546	2.550
2.472	2.543	2.542
2.470	2.548	2.542
2.477	2.548	2.540
2.473	2.543	2.545
2.475	2.545	2.550
2.480	2.548	2.549
2.469	2.547	2.560
2.472	2.552	2.560
2.470	2.552	2.575
2.473	2.547	2.578
2.470	2.550	2.571
2.470	2.549	2.559
2.470	2.552	2.560
2.472	2.542	2.562
2.472	2.545	2.570
2.472	2.545	2.562
2.477	2.553	2.567
2.481	2.552	2.572
2.477	2.548	2.584
2.474	2.547	2.576
2.474	2.548	2.560
2.478	2.550	2.540
2.473	2.546	2.539
2.467	2.547	2.542
2.470	2.549	2.540
2.470	2.545	2.533
2.462	2.547	2.525
2.468	2.547	2.523
2.465	2.548	2.528
2.465	2.544	2.532
2.473	2.548	2.540
2.472	2.545	2.540
2.480	2.548	2.538
2.472	2.548	2.532
2.480	2.546	2.545
2.480	2.547	2.560
2.480	2.545	2.558
2.479	2.541	2.550
2.482	2.545	2.552
2.477	2.550	2.562
2.480	2.548	2.560
2.484	2.545	2.541
2.480	2.550	2.530
2.475	2.548	2.525
2.474	2.548	2.520
2.475	2.547	2.511
2.472	2.549	2.512
2.475	2.546	2.508
2.470	2.548	2.504
2.474	2.544	2.511
2.480	2.545	2.518
2.469	2.544	2.522
2.470	2.543	2.534
2.467	2.545	2.536
2.470	2.540	2.542
2.475	2.545	2.547
2.480	2.545	2.547
2.470	2.555	2.540
2.467	2.543	2.518
2.470	2.551	2.510
2.470	2.550	2.500
2.475	2.541	2.493
2.463	2.547	2.478
2.465	2.545	2.469
2.470	2.550	2.462
2.470	2.548	2.465
2.470	2.548	2.462
2.474	2.547	2.453
2.478	2.548	2.464
2.480	2.547	2.500
2.472	2.542	2.514
2.474	2.552	2.523
2.475	2.556	2.523
2.477	2.547	2.535
2.475	2.548	2.542
2.475	2.550	2.545
2.469	2.548	2.547
2.470	2.553	2.547
2.472	2.545	2.540
2.474	2.550	2.540
2.472	2.541	2.532
2.477	2.552	2.524
2.482	2.552	2.515
2.477	2.546	2.515
2.478	2.547	2.521
2.475	2.546	2.528
2.480	2.544	2.537
2.481	2.544	2.532
2.482	2.544	2.524
2.485	2.546	2.507
2.480	2.550	2.504
2.480	2.549	2.505
2.487	2.550	2.508
2.482	2.545	2.506
2.479	2.549	2.517
2.480	2.548	2.526
2.480	2.549	2.518
2.480	2.543	2.523
2.479	2.540	2.523
2.485	2.550	2.525
2.484	2.550	2.527
2.485	2.545	2.539
2.482	2.548	2.533
2.482	2.550	2.518
2.479	2.545	2.530
2.475	2.545	2.530
2.484	2.548	2.533
2.482	2.540	2.530
2.482	2.545	2.522
2.484	2.556	2.520
2.489	2.544	2.512
2.485	2.548	2.508
2.482	2.545	2.503
2.480	2.548	2.501
2.479	2.550	2.504
2.480	2.548	2.508
2.482	2.550	2.501
2.478	2.550	2.496
2.480	2.548	2.504
2.480	2.548	2.515
2.488	2.548	2.530
2.485	2.549	2.522
2.478	2.550	2.524
2.477	2.542	2.536
2.484	2.545	2.535
2.491	2.545	2.526
2.485	2.548	2.525
2.484	2.546	2.527
2.482	2.545	2.524
2.482	2.547	2.525
2.475	2.550	2.548
2.480	2.547	2.555
2.477	2.542	2.560
2.472	2.549	2.560
2.476	2.554	2.551
2.485	2.543	2.538
2.480	2.545	2.530
2.479	2.551	2.537
2.480	2.552	2.538
2.477	2.548	2.541
2.483	2.549	2.539
2.480	2.544	2.552
2.482	2.548	2.546
2.480	2.550	2.552
2.490	2.550	2.550
2.480	2.551	2.552
2.485	2.555	2.559
2.485	2.550	2.553
2.482	2.550	2.554
2.485	2.545	2.545
2.484	2.550	2.538
2.481	2.550	2.527
2.479	2.543	2.526
2.480	2.548	2.530
2.481	2.547	2.543
2.482	2.545	2.540
2.484	2.545	2.535
2.492	2.553	2.539
2.489	2.544	2.559
2.489	2.547	2.569
2.499	2.546	2.578
2.496	2.543	2.579
2.493	2.548	2.571
2.494	2.548	2.564
2.489	2.548	2.571
2.494	2.543	2.570
2.496	2.554	2.575
2.500	2.552	2.575
2.499	2.552	2.574
2.489	2.542	2.571
2.492	2.553	2.571
2.485	2.548	2.573
2.487	2.548	2.574
2.494	2.552	2.579
2.487	2.552	2.591
2.489	2.543	2.594
2.484	2.557	2.596
2.480	2.552	2.604
2.487	2.549	2.599
2.479	2.550	2.597
2.487	2.545	2.593
2.478	2.551	2.603
2.479	2.545	2.616
2.490	2.550	2.621
2.482	2.545	2.628
2.484	2.549	2.643
2.482	2.548	2.668
2.489	2.556	2.668
2.489	2.548	2.654
2.490	2.547	2.639
2.485	2.545	2.621
2.484	2.547	2.611
2.484	2.550	2.603
2.489	2.543	2.598
2.485	2.546	2.593
2.487	2.554	2.589
2.479	2.545	2.586
2.487	2.550	2.587
2.488	2.550	2.587
2.486	2.548	2.596
2.489	2.548	2.601
2.494	2.550	2.611
2.487	2.551	2.604
2.484	2.555	2.611
2.482	2.553	2.610
2.480	2.554	2.618
2.479	2.557	2.629
2.478	2.554	2.633
2.473	2.554	2.631
2.479	2.552	2.643
2.477	2.550	2.657
2.474	2.554	2.663
2.475	2.550	2.666
2.487	2.547	2.660
2.482	2.550	2.645
2.482	2.545	2.635
2.493	2.545	2.633
2.491	2.550	2.628
2.486	2.548	2.619
2.487	2.549	2.604
2.484	2.549	2.601
2.485	2.548	2.596
2.484	2.550	2.594
2.482	2.548	2.601
2.487	2.548	2.597
2.482	2.548	2.587
2.480	2.551	2.570
2.477	2.552	2.563
2.472	2.548	2.572
2.477	2.543	2.588
2.480	2.541	2.579
2.477	2.548	2.572
2.475	2.549	2.560
2.477	2.541	2.568
2.473	2.547	2.578
2.481	2.550	2.582
2.489	2.548	2.580
2.484	2.545	2.575
2.484	2.548	2.571
2.477	2.549	2.565
2.480	2.552	2.577
2.477	2.545	2.590
2.478	2.546	2.597
2.481	2.552	2.596
2.485	2.549	2.579
2.484	2.552	2.566
2.492	2.550	2.556
2.491	2.548	2.558
2.484	2.543	2.550
2.489	2.552	2.548
2.482	2.555	2.560
2.488	2.545	2.579
2.480	2.545	2.586
2.483	2.545	2.609
2.484	2.547	2.612
2.479	2.548	2.611
2.479	2.547	2.602
2.472	2.541	2.579
2.470	2.548	2.566
2.474	2.550	2.549
2.475	2.547	2.540
2.470	2.547	2.537
2.469	2.540	2.540
2.472	2.544	2.531
2.467	2.545	2.540
2.472	2.543	2.544
2.477	2.547	2.551
2.472	2.549	2.550
2.467	2.547	2.565
2.463	2.549	2.567
2.461	2.541	2.560
2.469	2.547	2.558
2.470	2.545	2.560
2.467	2.545	2.560
2.462	2.545	2.561
2.460	2.545	2.567
2.462	2.545	2.564
2.465	2.551	2.560
2.458	2.545	2.549
2.468	2.548	2.559
2.466	2.547	2.552
2.462	2.546	2.557
2.462	2.541	2.566
2.460	2.547	2.568
2.460	2.548	2.573
2.457	2.548	2.569
2.462	2.545	2.557
2.458	2.545	2.545
2.458	2.545	2.552
2.463	2.545	2.555
2.467	2.540	2.552
2.470	2.540	2.549
2.467	2.551	2.552
2.469	2.546	2.552
2.465	2.541	2.551
2.464	2.543	2.550
2.463	2.545	2.542
2.463	2.538	2.530
2.462	2.543	2.520
2.459	2.550	2.521
2.464	2.544	2.532
2.460	2.550	2.535
2.453	2.553	2.527
2.462	2.542	2.520
2.462	2.543	2.505
2.455	2.549	2.495
2.453	2.547	2.490
2.459	2.542	2.491
2.458	2.545	2.506
2.453	2.545	2.513
2.452	2.542	2.515
2.450	2.545	2.512
2.455	2.543	2.511
2.462	2.547	2.508
2.456	2.543	2.508
2.455	2.543	2.495
2.466	2.548	2.516
2.467	2.547	2.525
2.459	2.539	2.533
2.458	2.550	2.528
2.455	2.548	2.528
2.452	2.541	2.521
2.457	2.539	2.530
2.458	2.542	2.522
2.456	2.540	2.513
2.458	2.545	2.501
2.455	2.539	2.496
2.454	2.543	2.492
2.455	2.541	2.500
2.462	2.542	2.503
2.459	2.542	2.501
2.455	2.539	2.500
2.465	2.543	2.508
2.466	2.546	2.512
2.468	2.543	2.521
2.468	2.541	2.530
2.467	2.540	2.537
2.455	2.536	2.530
2.462	2.543	2.530
2.461	2.544	2.522
2.465	2.541	2.515
2.453	2.545	2.508
2.455	2.544	2.512
2.459	2.537	2.501
2.457	2.541	2.508
2.448	2.545	2.513
2.445	2.545	2.506
2.460	2.542	2.513
2.454	2.545	2.515
2.458	2.542	2.521
2.458	2.542	2.514
2.461	2.540	2.518
2.465	2.543	2.509
2.455	2.546	2.499
2.460	2.541	2.493
2.457	2.546	2.496
2.452	2.547	2.510
2.452	2.547	2.507
2.455	2.540	2.510
2.450	2.543	2.515
2.458	2.542	2.512
2.463	2.542	2.511
2.458	2.545	2.508
2.462	2.545	2.501
2.462	2.545	2.503
2.467	2.541	2.501
2.464	2.541	2.496
2.464	2.541	2.499
2.460	2.545	2.508
2.467	2.545	2.495
2.462	2.537	2.489
2.460	2.545	2.482
2.457	2.545	2.486
2.455	2.541	2.498
2.464	2.545	2.504
2.460	2.541	2.492
2.460	2.540	2.485
2.458	2.541	2.493
2.453	2.539	2.506
2.457	2.538	2.509
2.450	2.540	2.508
2.453	2.548	2.514
2.455	2.541	2.514
2.452	2.543	2.518
2.449	2.540	2.527
2.458	2.541	2.527
2.457	2.540	2.524
2.463	2.540	2.525
2.465	2.541	2.528
2.465	2.541	2.523
2.452	2.542	2.523
2.470	2.541	2.531
2.469	2.540	2.532
2.469	2.540	2.531
2.467	2.540	2.518
2.462	2.538	2.513
2.465	2.542	2.515
2.459	2.540	2.513
2.457	2.542	2.503
2.458	2.538	2.506
2.460	2.540	2.522
2.457	2.549	2.537
2.452	2.540	2.550
2.457	2.543	2.553
2.462	2.536	2.560
2.468	2.543	2.566
2.471	2.542	2.577
2.462	2.543	2.583
2.467	2.540	2.581
2.459	2.540	2.564
2.464	2.535	2.564
2.464	2.532	2.572
2.470	2.543	2.577
2.470	2.540	2.567
2.470	2.541	2.566
2.470	2.546	2.572
2.470	2.536	2.573
2.477	2.543	2.570
2.470	2.542	2.570
2.469	2.535	2.568
2.466	2.541	2.553
2.465	2.540	2.557
2.462	2.539	2.556
2.470	2.540	2.562
2.470	2.538	2.568
2.470	2.540	2.570
2.472	2.539	2.567
2.473	2.546	2.566
2.469	2.548	2.581
2.470	2.535	2.593
2.475	2.541	2.601
2.475	2.542	2.599
2.480	2.545	2.601
2.470	2.540	2.609
2.472	2.545	2.629
2.470	2.543	2.621
2.470	2.540	2.611
2.470	2.541	2.601
2.469	2.543	2.596
2.469	2.542	2.596
2.469	2.537	2.594
2.470	2.543	2.611
2.467	2.542	2.608
2.470	2.541	2.603
2.469	2.541	2.605
2.470	2.541	2.599
2.480	2.540	2.587
2.476	2.542	2.587
2.477	2.541	2.617
2.480	2.543	2.631
2.482	2.542	2.645
2.478	2.545	2.655
2.477	2.542	2.663
2.480	2.547	2.668
2.480	2.540	2.678
2.484	2.542	2.666
2.485	2.542	2.659
2.480	2.540	2.646
2.487	2.542	2.641
2.476	2.540	2.638
2.482	2.540	2.638
2.489	2.543	2.626
2.487	2.543	2.611
2.489	2.544	2.599
2.489	2.543	2.603
2.484	2.540	2.594
2.490	2.540	2.599
2.480	2.543	2.604
2.485	2.538	2.625
2.482	2.546	2.644
2.477	2.540	2.650
2.477	2.539	2.653
2.483	2.537	2.642
2.477	2.543	2.629
2.472	2.541	2.621
2.481	2.541	2.612
2.477	2.541	2.609
2.478	2.539	2.609
2.480	2.545	2.610
2.481	2.543	2.619
2.479	2.548	2.619
2.480	2.553	2.631
2.479	2.544	2.621
2.480	2.544	2.619
2.482	2.545	2.619
2.477	2.542	2.608
2.481	2.543	2.607
2.477	2.545	2.601
2.479	2.545	2.605
2.484	2.541	2.624
2.482	2.540	2.632
2.489	2.538	2.638
2.488	2.540	2.651
2.479	2.545	2.645
2.484	2.545	2.638
2.482	2.541	2.625
2.482	2.540	2.631
2.479	2.543	2.619
2.484	2.548	2.611
2.480	2.541	2.619
2.479	2.544	2.634
2.479	2.536	2.626
2.474	2.540	2.610
2.472	2.545	2.593
2.482	2.540	2.588
2.475	2.540	2.593
2.474	2.541	2.596
2.484	2.540	2.594
2.483	2.540	2.587
2.482	2.540	2.583
2.487	2.543	2.585
2.489	2.539	2.594
2.485	2.542	2.611
2.488	2.544	2.601
2.479	2.545	2.593
2.479	2.540	2.591
2.484	2.540	2.596
2.480	2.541	2.593
2.477	2.542	2.593
2.479	2.540	2.580
2.470	2.540	2.569
2.470	2.543	2.560
2.473	2.540	2.562
2.467	2.543	2.560
2.471	2.539	2.559
2.472	2.546	2.559
2.470	2.540	2.573
2.472	2.545	2.577
2.469	2.548	2.579
2.470	2.542	2.582
2.472	2.542	2.594
2.464	2.538	2.591
2.470	2.539	2.594
2.469	2.541	2.607
2.474	2.540	2.601
2.470	2.545	2.596
2.472	2.540	2.598
2.475	2.543	2.600
2.473	2.538	2.600
2.467	2.541	2.606
2.470	2.548	2.609
2.474	2.546	2.613
2.470	2.541	2.610
2.472	2.545	2.615
2.470	2.544	2.604
2.470	2.543	2.589
2.469	2.542	2.584
2.470	2.541	2.565
2.472	2.546	2.567
2.470	2.544	2.560
2.469	2.539	2.545
2.467	2.537	2.542
2.465	2.541	2.560
2.470	2.540	2.560
2.472	2.542	2.552
2.474	2.540	2.550
2.469	2.538	2.547
2.479	2.540	2.538
2.485	2.550	2.530
2.475	2.543	2.530
2.471	2.541	2.534
2.477	2.539	2.541
2.477	2.535	2.537
2.476	2.540	2.542
2.480	2.540	2.550
2.474	2.540	2.552
2.472	2.540	2.547
2.475	2.548	2.548
2.473	2.540	2.540
2.473	2.543	2.532
2.472	2.548	2.530
2.473	2.543	2.527
2.470	2.545	2.523
2.472	2.542	2.521
2.474	2.544	2.528
2.470	2.540	2.528
2.470	2.540	2.525
2.469	2.537	2.522
2.462	2.540	2.528
2.467	2.540	2.517
2.465	2.540	2.515
2.469	2.538	2.506
2.469	2.540	2.501
2.469	2.542	2.508
2.468	2.543	2.519
2.469	2.537	2.520
2.468	2.545	2.521
2.466	2.533	2.524
2.470	2.538	2.530
2.474	2.540	2.530
2.469	2.545	2.535
2.469	2.542	2.525
2.462	2.540	2.535
2.470	2.540	2.538
2.470	2.540	2.550
2.469	2.537	2.567
2.464	2.541	2.573
2.470	2.541	2.577
2.472	2.542	2.572
2.469	2.539	2.562
2.474	2.540	2.554
2.477	2.540	2.549
2.474	2.542	2.542
2.475	2.543	2.543
2.474	2.535	2.540
2.470	2.537	2.545
2.477	2.540	2.536
2.472	2.538	2.540
2.477	2.541	2.540
2.479	2.535	2.540
2.475	2.546	2.538
2.482	2.543	2.535
2.482	2.540	2.532
2.483	2.540	2.537
2.473	2.541	2.554
2.474	2.540	2.562
2.477	2.542	2.557
2.472	2.541	2.545
2.474	2.537	2.536
2.477	2.543	2.537
2.477	2.538	2.541
2.473	2.541	2.555
2.471	2.537	2.567
2.470	2.535	2.576
2.484	2.541	2.577
2.477	2.541	2.576
2.477	2.549	2.568
2.474	2.545	2.562
2.477	2.544	2.557
2.469	2.544	2.567
2.471	2.548	2.573
2.472	2.540	2.570
2.465	2.538	2.566
2.474	2.540	2.555
2.472	2.542	2.545
2.473	2.543	2.534
2.472	2.540	2.550
2.477	2.543	2.547
2.474	2.547	2.544
2.480	2.543	2.560
2.480	2.540	2.567
2.469	2.537	2.559
2.477	2.540	2.559
2.479	2.548	2.560
2.482	2.548	2.569
2.480	2.541	2.574
2.474	2.537	2.569
2.477	2.541	2.569
2.478	2.542	2.566
2.481	2.543	2.572
2.474	2.542	2.589
2.484	2.544	2.584
2.480	2.543	2.579
2.484	2.538	2.570
2.485	2.542	2.569
2.482	2.540	2.571
2.487	2.542	2.562
2.478	2.545	2.565
2.477	2.543	2.569
2.475	2.541	2.574
2.475	2.535	2.582
2.479	2.537	2.585
2.474	2.540	2.574
2.479	2.541	2.566
2.475	2.540	2.570
2.482	2.542	2.584
2.485	2.544	2.595
2.489	2.545	2.597
2.478	2.547	2.594
2.486	2.540	2.586
2.479	2.546	2.574
2.472	2.544	2.574
2.475	2.545	2.577
2.480	2.548	2.583
2.482	2.545	2.589
2.475	2.551	2.589
2.469	2.551	2.589
2.475	2.548	2.594
2.477	2.548	2.597
2.477	2.547	2.607
2.480	2.550	2.603
2.477	2.552	2.593
2.475	2.549	2.599
2.481	2.544	2.602
2.488	2.546	2.601
2.493	2.540	2.594
2.482	2.543	2.594
2.491	2.545	2.597
2.479	2.542	2.593
2.485	2.551	2.584
2.482	2.547	2.594
2.484	2.545	2.599
2.487	2.547	2.609
2.485	2.548	2.626
2.485	2.548	2.631
2.483	2.547	2.631
2.489	2.549	2.638
2.492	2.550	2.631
2.487	2.548	2.619
2.487	2.547	2.609
2.482	2.548	2.592
2.474	2.543	2.581
2.471	2.542	2.580
2.471	2.544	2.577
2.474	2.540	2.560
2.475	2.540	2.543
2.472	2.543	2.551
2.469	2.544	2.548
2.480	2.541	2.546
2.472	2.543	2.542
2.475	2.545	2.547
2.478	2.545	2.559
2.481	2.544	2.560
2.473	2.544	2.574
2.479	2.544	2.582
2.472	2.544	2.590
2.477	2.541	2.597
2.477	2.540	2.590
2.469	2.545	2.580
2.470	2.541	2.567
2.478	2.541	2.560
2.473	2.535	2.562
2.469	2.541	2.567
2.474	2.542	2.559
2.465	2.542	2.540
2.459	2.541	2.540
2.460	2.540	2.530
2.465	2.534	2.523
2.464	2.542	2.525
2.464	2.542	2.524
2.456	2.540	2.525
2.460	2.543	2.536
2.460	2.547	2.545
2.462	2.542	2.540
2.458	2.540	2.547
2.457	2.542	2.562
2.460	2.542	2.553
2.462	2.543	2.555
2.458	2.549	2.542
2.460	2.545	2.531
2.450	2.548	2.530
2.462	2.540	2.528
2.460	2.545	2.525
2.459	2.543	2.530
2.457	2.542	2.520
2.457	2.544	2.515
2.462	2.542	2.517
2.465	2.541	2.523
2.463	2.540	2.537
2.463	2.540	2.535
2.468	2.545	2.548
2.469	2.547	2.560
2.467	2.541	2.571
2.467	2.543	2.570
2.457	2.545	2.567
2.464	2.544	2.537
2.463	2.544	2.538
2.461	2.545	2.544
2.460	2.543	2.543
2.457	2.541	2.559
2.462	2.543	2.566
2.452	2.548	2.564
2.464	2.545	2.580
2.458	2.545	2.576
2.457	2.549	2.569
2.465	2.540	2.562
2.464	2.540	2.559
2.460	2.544	2.559
2.462	2.544	2.557
2.464	2.541	2.555
2.462	2.543	2.559
2.462	2.547	2.539
2.467	2.545	2.526
2.470	2.546	2.525
2.470	2.545	2.528
2.463	2.544	2.523
2.465	2.545	2.532
2.467	2.547	2.537
2.462	2.540	2.547
2.459	2.545	2.542
2.457	2.541	2.542
2.449	2.541	2.535
2.450	2.535	2.540
2.468	2.540	2.542
2.464	2.541	2.538
2.468	2.541	2.528
2.455	2.538	2.520
2.457	2.540	2.531
2.462	2.544	2.544
2.464	2.540	2.548
2.469	2.540	2.540
2.470	2.540	2.521
2.465	2.541	2.511
2.469	2.544	2.498
2.459	2.547	2.492
2.470	2.545	2.493
2.467	2.542	2.506
2.457	2.545	2.501
2.460	2.540	2.508
2.460	2.542	2.513
2.457	2.545	2.522
2.453	2.543	2.526
2.460	2.540	2.538
2.459	2.541	2.545
2.454	2.541	2.546
2.467	2.542	2.550
2.462	2.540	2.553
2.460	2.540	2.551
2.462	2.545	2.553
2.462	2.538	2.550
2.463	2.540	2.552
2.466	2.543	2.572
2.460	2.545	2.589
2.462	2.540	2.591
2.459	2.541	2.604
2.467	2.540	2.599
2.469	2.540	2.582
2.472	2.544	2.576
2.467	2.546	2.574
2.465	2.542	2.570
2.464	2.540	2.556
2.459	2.540	2.550
2.462	2.541	2.540
2.462	2.547	2.554
2.467	2.540	2.565
2.465	2.542	2.570
2.472	2.542	2.574
2.470	2.540	2.554
2.473	2.541	2.544
2.470	2.545	2.527
2.466	2.541	2.537
2.470	2.542	2.545
2.470	2.541	2.542
2.465	2.540	2.535
2.469	2.539	2.527
2.468	2.543	2.534
2.465	2.540	2.532
2.463	2.553	2.530
2.461	2.547	2.535
2.462	2.540	2.533
2.462	2.545	2.524
2.460	2.538	2.523
2.460	2.543	2.522
2.465	2.537	2.535
2.462	2.540	2.546
2.470	2.541	2.546
2.473	2.541	2.540
2.474	2.540	2.528
2.463	2.540	2.531
2.470	2.544	2.533
2.467	2.543	2.537
2.470	2.538	2.539
2.470	2.538	2.553
2.477	2.543	2.557
2.470	2.546	2.542
2.473	2.541	2.544
2.470	2.540	2.552
2.466	2.539	2.551
2.467	2.538	2.557
2.462	2.535	2.556
2.467	2.538	2.547
2.469	2.540	2.539
2.470	2.542	2.552
2.467	2.540	2.567
2.466	2.543	2.588
2.473	2.541	2.594
2.469	2.539	2.594
2.472	2.535	2.597
2.472	2.540	2.604
2.470	2.540	2.607
2.469	2.539	2.606
2.469	2.543	2.580
2.472	2.541	2.562
2.473	2.539	2.550
2.469	2.546	2.542
2.465	2.545	2.547
2.469	2.540	2.553
2.465	2.537	2.557
2.467	2.535	2.560
2.464	2.546	2.560
2.472	2.540	2.561
2.469	2.542	2.565
2.470	2.542	2.584
2.473	2.542	2.594
2.462	2.542	2.594
2.470	2.540	2.604
2.469	2.545	2.610
2.466	2.545	2.620
2.467	2.550	2.627
2.470	2.551	2.626
2.467	2.542	2.622
2.465	2.543	2.614
2.469	2.545	2.602
2.466	2.548	2.583
2.465	2.547	2.572
2.462	2.544	2.567
2.467	2.543	2.560
2.455	2.550	2.552
2.463	2.543	2.554
2.462	2.546	2.569
2.463	2.543	2.571
2.462	2.543	2.574
2.463	2.543	2.560
2.462	2.541	2.552
2.458	2.539	2.544
2.457	2.548	2.557
2.460	2.547	2.562
2.458	2.541	2.577
2.464	2.545	2.584
2.468	2.540	2.584
2.470	2.541	2.588
2.465	2.540	2.585
2.470	2.548	2.585
2.467	2.543	2.579
2.468	2.548	2.572
2.469	2.544	2.552
2.467	2.541	2.567
2.472	2.547	2.579
2.473	2.540	2.580
2.469	2.541	2.572
2.464	2.540	2.564
2.467	2.543	2.552
2.467	2.542	2.564
2.467	2.543	2.560
2.464	2.550	2.562
2.464	2.548	2.560
2.470	2.549	2.539
2.468	2.547	2.533
2.469	2.543	2.532
2.469	2.548	2.531
2.472	2.548	2.540
2.469	2.548	2.552
2.472	2.548	2.545
2.477	2.542	2.537
2.472	2.540	2.527
2.467	2.550	2.533
2.473	2.542	2.528
2.470	2.543	2.522
2.459	2.544	2.515
2.470	2.547	2.515
2.470	2.548	2.526
2.472	2.542	2.540
2.470	2.545	2.550
2.465	2.542	2.572
2.465	2.542	2.572
2.466	2.545	2.573
2.462	2.545	2.563
2.455	2.545	2.545
2.460	2.545	2.530
2.457	2.539	2.518
2.457	2.548	2.512
2.457	2.544	2.505
2.465	2.548	2.508
2.459	2.545	2.504
2.460	2.544	2.496
2.467	2.545	2.493
2.462	2.550	2.498
2.469	2.544	2.505
2.462	2.540	2.509
2.467	2.542	2.509
2.467	2.541	2.518
2.457	2.547	2.537
2.459	2.540	2.542
2.460	2.544	2.549
2.465	2.544	2.547
2.456	2.541	2.540
2.460	2.545	2.540
2.462	2.542	2.547
2.462	2.548	2.551
2.465	2.542	2.547
2.457	2.543	2.543
2.460	2.539	2.562
2.463	2.542	2.567
2.459	2.548	2.567
2.460	2.546	2.554
2.467	2.551	2.553
2.467	2.546	2.550
2.462	2.543	2.530
2.457	2.548	2.523
2.460	2.545	2.522
2.465	2.541	2.541
2.461	2.545	2.539
2.462	2.542	2.542
2.458	2.547	2.535
2.465	2.540	2.531
2.462	2.540	2.523
2.458	2.543	2.524
2.460	2.541	2.533
2.458	2.544	2.523
2.462	2.538	2.523
2.455	2.538	2.525
2.453	2.540	2.520
2.447	2.541	2.527
2.452	2.541	2.525
2.450	2.541	2.530
2.450	2.540	2.522
2.445	2.541	2.515
2.447	2.540	2.498
2.455	2.542	2.500
2.453	2.540	2.503
2.454	2.542	2.505
2.456	2.544	2.496
2.463	2.538	2.496
2.470	2.543	2.504
2.465	2.542	2.504
2.460	2.541	2.510
2.457	2.542	2.515
2.467	2.542	2.515
2.462	2.541	2.502
2.459	2.540	2.502
2.458	2.540	2.495
2.454	2.543	2.489
2.448	2.542	2.489
2.449	2.541	2.486
2.452	2.532	2.482
2.452	2.541	2.506
2.453	2.540	2.512
2.453	2.540	2.516
2.446	2.542	2.528
2.455	2.540	2.537
2.462	2.538	2.541
2.463	2.538	2.548
2.464	2.541	2.547
2.462	2.540	2.547
2.459	2.533	2.540
2.460	2.536	2.529
2.452	2.535	2.525
2.456	2.540	2.525
2.452	2.538	2.533
2.450	2.541	2.540
2.450	2.540	2.545
2.448	2.537	2.547
2.454	2.541	2.542
2.459	2.541	2.541
2.455	2.537	2.536
2.460	2.541	2.542
2.454	2.541	2.547
2.459	2.531	2.547
2.467	2.531	2.541
2.457	2.540	2.532
2.462	2.540	2.533
2.462	2.541	2.513
2.454	2.533	2.513
2.455	2.532	2.512
2.458	2.535	2.508
2.455	2.541	2.517
2.446	2.538	2.521
2.445	2.538	2.540
2.448	2.536	2.559
2.452	2.537	2.576
2.450	2.534	2.571
2.457	2.540	2.564
2.460	2.535	2.554
2.462	2.541	2.544
2.461	2.542	2.535
2.468	2.535	2.536
2.467	2.536	2.544
2.467	2.533	2.551
2.464	2.540	2.552
2.459	2.540	2.540
2.459	2.535	2.544
2.454	2.542	2.542
2.463	2.547	2.543
2.464	2.540	2.552
2.462	2.543	2.557
2.467	2.540	2.550
2.467	2.540	2.545
2.468	2.540	2.541
2.467	2.545	2.537
2.467	2.540	2.548
2.467	2.538	2.553
2.465	2.540	2.547
2.465	2.539	2.540
2.461	2.531	2.540
2.460	2.538	2.540
2.455	2.542	2.538
2.457	2.540	2.537
2.454	2.540	2.536
2.452	2.538	2.534
2.452	2.540	2.539
2.458	2.535	2.533
2.467	2.541	2.533
2.458	2.543	2.534
2.462	2.540	2.545
2.470	2.540	2.541
2.464	2.541	2.530
2.457	2.541	2.526
2.462	2.539	2.518
2.467	2.538	2.513
2.457	2.540	2.523
2.459	2.543	2.538
2.466	2.542	2.544
2.470	2.540	2.550
2.469	2.542	2.572
2.467	2.543	2.576
2.470	2.539	2.577
2.467	2.543	2.585
2.462	2.539	2.581
2.459	2.541	2.572
2.458	2.536	2.567
2.454	2.539	2.561
2.457	2.538	2.567
2.450	2.538	2.579
2.458	2.542	2.573
2.460	2.538	2.562
2.462	2.537	2.564
2.465	2.538	2.560
2.460	2.539	2.564
2.461	2.541	2.559
2.462	2.546	2.554
2.467	2.545	2.543
2.470	2.536	2.537
2.465	2.545	2.535
2.462	2.540	2.535
2.467	2.538	2.530
2.462	2.537	2.537
2.462	2.542	2.540
2.464	2.542	2.547
2.460	2.538	2.554
2.462	2.540	2.556
2.462	2.541	2.554
2.467	2.539	2.545
2.470	2.545	2.548
2.465	2.546	2.548
2.469	2.545	2.555
2.467	2.541	2.561
2.468	2.541	2.554
2.469	2.542	2.557
2.467	2.541	2.564
2.465	2.540	2.572
2.464	2.540	2.574
2.467	2.546	2.572
2.462	2.538	2.577
2.462	2.541	2.580
2.463	2.539	2.579
2.464	2.541	2.572
2.457	2.543	2.584
2.462	2.545	2.588
2.452	2.540	2.592
2.457	2.543	2.595
2.460	2.540	2.591
2.456	2.542	2.584
2.468	2.542	2.591
2.465	2.540	2.591
2.467	2.542	2.604
2.467	2.542	2.611
2.470	2.544	2.619
2.470	2.541	2.616
2.464	2.540	2.611
2.462	2.540	2.612
2.459	2.543	2.614
2.467	2.551	2.611
2.460	2.543	2.607
2.458	2.542	2.591
2.456	2.541	2.581
2.460	2.547	2.580
2.457	2.548	2.578
2.452	2.545	2.576
2.457	2.541	2.584
2.452	2.541	2.579
2.452	2.542	2.577
2.452	2.548	2.575
2.457	2.540	2.571
2.450	2.542	2.569
2.457	2.540	2.562
2.455	2.543	2.550
2.458	2.540	2.545
2.452	2.542	2.542
2.445	2.545	2.538
2.450	2.541	2.530
2.453	2.543	2.530
2.450	2.539	2.533
2.440	2.534	2.535
2.443	2.543	2.526
2.445	2.548	2.525
2.450	2.543	2.528
2.450	2.540	2.527
2.452	2.540	2.529
2.445	2.540	2.536
2.455	2.541	2.523
2.460	2.540	2.523
2.456	2.539	2.526
2.457	2.539	2.522
2.455	2.545	2.526
2.457	2.543	2.530
2.455	2.540	2.541
2.448	2.544	2.540
2.453	2.545	2.537
2.453	2.543	2.542
2.452	2.542	2.549
2.458	2.544	2.548
2.455	2.540	2.547
2.450	2.545	2.545
2.457	2.543	2.545
2.455	2.541	2.550
2.452	2.539	2.550
2.450	2.542	2.550
2.448	2.538	2.551
2.449	2.532	2.550
2.451	2.541	2.547
2.452	2.540	2.550
2.450	2.539	2.550
2.460	2.542	2.546
2.462	2.543	2.538
2.458	2.542	2.539
2.460	2.541	2.540
2.460	2.540	2.560
2.458	2.541	2.555
2.459	2.541	2.560
2.462	2.540	2.560
2.457	2.540	2.554
2.450	2.535	2.560
2.450	2.541	2.559
2.452	2.540	2.560
2.452	2.540	2.564
2.450	2.539	2.557
2.447	2.540	2.552
2.460	2.540	2.550
2.452	2.541	2.557
2.454	2.543	2.576
2.443	2.541	2.589
2.457	2.535	2.596
2.454	2.531	2.584
2.450	2.540	2.574
2.455	2.541	2.575
2.452	2.540	2.561
2.451	2.535	2.541
2.452	2.539	2.532
2.443	2.537	2.539
2.455	2.542	2.532
2.458	2.541	2.522
2.453	2.537	2.517
2.455	2.535	2.531
2.450	2.531	2.530
2.450	2.540	2.530
2.451	2.544	2.521
2.455	2.538	2.527
2.452	2.543	2.527
2.450	2.541	2.523
2.450	2.532	2.518
2.452	2.535	2.503
2.450	2.542	2.504
2.452	2.540	2.489
2.451	2.540	2.489
2.455	2.538	2.498
2.452	2.541	2.506
2.452	2.536	2.512
2.452	2.540	2.516
2.445	2.538	2.520
2.447	2.541	2.522
2.450	2.541	2.535
2.450	2.535	2.535
2.445	2.543	2.534
2.444	2.540	2.536
2.450	2.543	2.537
2.452	2.544	2.540
2.450	2.539	2.544
2.452	2.540	2.564
2.448	2.545	2.579
2.453	2.548	2.587
2.455	2.543	2.581
2.453	2.548	2.567
2.452	2.543	2.553
2.452	2.540	2.540
2.450	2.540	2.524
2.448	2.540	2.537
2.450	2.540	2.544
2.457	2.542	2.553
2.460	2.548	2.542
2.455	2.545	2.539
2.456	2.544	2.540
2.465	2.545	2.540
2.454	2.539	2.543
2.453	2.539	2.547
2.453	2.541	2.535
2.452	2.548	2.552
2.454	2.545	2.560
2.454	2.541	2.561
2.455	2.545	2.554
2.457	2.544	2.547
2.460	2.550	2.543
2.455	2.546	2.545
2.463	2.534	2.555
2.455	2.543	2.555
2.457	2.540	2.554
2.467	2.543	2.562
2.464	2.542	2.563
2.459	2.543	2.572
2.460	2.540	2.579
2.460	2.540	2.577
2.455	2.542	2.567
2.460	2.540	2.560
2.457	2.547	2.560
2.460	2.540	2.559
2.458	2.539	2.556
2.460	2.540	2.543
2.455	2.545	2.533
2.459	2.540	2.540
2.450	2.543	2.532
2.452	2.542	2.537
2.453	2.542	2.537
2.453	2.545	2.528
2.460	2.543	2.542
2.462	2.543	2.548
2.460	2.542	2.552
2.450	2.547	2.562
2.450	2.549	2.573
2.455	2.543	2.575
2.442	2.542	2.580
2.440	2.547	2.587
2.444	2.548	2.579
2.448	2.540	2.548
2.453	2.547	2.537
2.443	2.545	2.544
2.445	2.545	2.549
2.445	2.545	2.566
2.445	2.551	2.580
2.452	2.539	2.589
2.452	2.545	2.600
2.458	2.541	2.594
2.457	2.537	2.591
2.455	2.542	2.579
2.460	2.543	2.586
2.460	2.540	2.592
2.461	2.545	2.587
2.461	2.542	2.591
2.459	2.547	2.604
2.457	2.545	2.597
2.456	2.540	2.589
2.457	2.541	2.592
2.461	2.544	2.598
2.460	2.539	2.604
2.452	2.540	2.593
2.457	2.543	2.599
2.463	2.548	2.593
2.465	2.547	2.585
2.467	2.538	2.574
2.465	2.537	2.572
2.467	2.540	2.572
2.470	2.548	2.577
2.470	2.541	2.576
2.469	2.543	2.575
2.468	2.546	2.580
2.475	2.543	2.601
2.470	2.545	2.611
2.470	2.550	2.619
2.470	2.551	2.614
2.475	2.548	2.615
2.477	2.548	2.626
2.472	2.550	2.626
2.469	2.545	2.623
2.469	2.551	2.613
2.470	2.543	2.598
2.462	2.551	2.589
2.462	2.541	2.580
2.460	2.538	2.580
2.462	2.542	2.577
2.465	2.545	2.572
2.470	2.543	2.579
2.469	2.540	2.588
2.467	2.541	2.594
2.470	2.547	2.590
2.472	2.540	2.582
2.465	2.542	2.586
2.475	2.547	2.594
2.470	2.542	2.593
2.467	2.549	2.599
2.465	2.547	2.592
2.467	2.550	2.594
2.470	2.545	2.581
2.473	2.545	2.580
2.475	2.547	2.590
2.467	2.541	2.587
2.470	2.543	2.594
2.467	2.542	2.583
2.470	2.543	2.586
2.467	2.543	2.589
2.469	2.549	2.574
2.461	2.544	2.574
2.465	2.546	2.567
2.460	2.546	2.560
2.457	2.545	2.569
2.465	2.545	2.579
2.467	2.547	2.575
2.462	2.543	2.569
2.465	2.542	2.574
2.469	2.543	2.575
2.470	2.542	2.582
2.463	2.543	2.593
2.467	2.539	2.597
2.465	2.548	2.589
2.468	2.541	2.599
2.470	2.540	2.606
2.470	2.540	2.617
2.459	2.542	2.609
2.462	2.543	2.594
2.460	2.543	2.577
2.460	2.540	2.572
2.462	2.539	2.584
2.460	2.540	2.591
2.460	2.540	2.597
2.464	2.541	2.584
2.468	2.545	2.589
2.470	2.545	2.582
2.470	2.540	2.585
2.469	2.545	2.586
2.465	2.542	2.586
2.465	2.544	2.593
2.462	2.542	2.596
2.465	2.542	2.599
2.465	2.540	2.605
2.457	2.543	2.616
2.469	2.543	2.617
2.470	2.541	2.614
2.467	2.546	2.604
2.463	2.542	2.597
2.469	2.538	2.611
2.467	2.545	2.607
2.468	2.540	2.604
2.464	2.538	2.587
2.466	2.540	2.579
2.462	2.545	2.579
2.462	2.540	2.576
2.455	2.542	2.574
2.460	2.540	2.572
2.455	2.540	2.564
2.460	2.541	2.556
2.463	2.543	2.542
2.462	2.554	2.547
2.463	2.543	2.548
2.465	2.541	2.545
2.468	2.541	2.542
2.464	2.540	2.546
2.463	2.540	2.552
2.454	2.540	2.568
2.460	2.538	2.581
2.464	2.538	2.582
2.462	2.540	2.587
2.458	2.541	2.587
2.460	2.539	2.582
2.460	2.538	2.577
2.452	2.540	2.571
2.454	2.541	2.573
2.452	2.543	2.565
2.457	2.538	2.559
2.463	2.542	2.560
2.465	2.542	2.570
2.470	2.540	2.575
2.467	2.540	2.577
2.470	2.533	2.572
2.468	2.538	2.573
2.471	2.541	2.588
2.466	2.541	2.593
2.465	2.538	2.594
2.465	2.542	2.580
2.465	2.541	2.577
2.465	2.540	2.578
2.462	2.540	2.587
2.470	2.540	2.588
2.469	2.541	2.587
2.473	2.540	2.586
2.466	2.541	2.577
2.469	2.535	2.567
2.465	2.541	2.558
2.462	2.539	2.555
2.464	2.540	2.554
2.467	2.535	2.560
2.464	2.540	2.564
2.470	2.540	2.572
2.471	2.540	2.574
2.466	2.540	2.559
2.468	2.540	2.562
2.470	2.540	2.569
2.467	2.539	2.574
2.465	2.543	2.576
2.460	2.545	2.602
2.464	2.544	2.609
2.460	2.535	2.611
2.468	2.543	2.611
2.467	2.540	2.598
2.464	2.543	2.597
2.468	2.545	2.594
2.465	2.543	2.575
2.468	2.540	2.574
2.467	2.541	2.562
2.462	2.542	2.555
2.463	2.541	2.560
2.470	2.543	2.569
2.459	2.549	2.575
2.463	2.543	2.604
2.470	2.540	2.616
2.462	2.545	2.616
2.457	2.542	2.621
2.460	2.546	2.619
2.460	2.543	2.611
2.458	2.543	2.611
2.459	2.540	2.611
2.457	2.539	2.611
2.457	2.541	2.606
2.448	2.538	2.597
2.447	2.539	2.597
2.462	2.541	2.599
2.454	2.540	2.599
2.465	2.540	2.604
2.458	2.540	2.610
2.461	2.540	2.606
2.458	2.540	2.602
2.454	2.542	2.608
2.455	2.545	2.610
2.460	2.541	2.627
2.460	2.541	2.624
2.462	2.543	2.616
2.457	2.541	2.609
2.456	2.541	2.611
2.458	2.535	2.606
2.458	2.540	2.607
2.452	2.540	2.597
2.457	2.540	2.600
2.462	2.540	2.598
2.457	2.543	2.594
2.462	2.539	2.580
2.454	2.540	2.575
2.458	2.540	2.581
2.461	2.541	2.584
2.467	2.541	2.581
2.460	2.534	2.573
2.457	2.535	2.573
2.458	2.540	2.581
2.460	2.540	2.593
2.462	2.540	2.594
2.470	2.540	2.585
2.470	2.543	2.591
2.468	2.540	2.600
2.471	2.540	2.617
2.467	2.545	2.621
2.467	2.543	2.613
2.460	2.541	2.604
2.462	2.540	2.606
2.465	2.538	2.609
2.464	2.542	2.606
2.470	2.545	2.600
2.463	2.544	2.594
2.462	2.545	2.591
2.462	2.541	2.585
2.469	2.538	2.581
2.463	2.540	2.586
2.464	2.540	2.590
2.470	2.541	2.594
2.465	2.542	2.602
2.462	2.547	2.608
2.466	2.548	2.610
2.470	2.543	2.606
2.465	2.540	2.616
2.462	2.543	2.630
2.454	2.542	2.631
2.457	2.540	2.630
2.460	2.540	2.614
2.454	2.548	2.597
2.458	2.542	2.590
2.456	2.543	2.577
2.453	2.540	2.574
2.455	2.540	2.565
2.457	2.539	2.557
2.455	2.537	2.550
2.462	2.540	2.557
2.457	2.542	2.562
2.460	2.539	2.559
2.455	2.540	2.552
2.460	2.540	2.547
2.456	2.532	2.542
2.457	2.535	2.545
2.457	2.542	2.557
2.460	2.542	2.544
2.450	2.541	2.544
2.455	2.538	2.553
2.460	2.534	2.553
2.453	2.545	2.552
2.451	2.541	2.561
2.448	2.538	2.567
2.440	2.536	2.563
2.443	2.535	2.551
2.445	2.537	2.547
2.448	2.540	2.552
2.444	2.540	2.557
2.457	2.536	2.575
2.453	2.535	2.588
2.458	2.539	2.604
2.461	2.541	2.609
2.460	2.537	2.606
2.462	2.540	2.604
2.464	2.536	2.589
2.459	2.535	2.581
2.459	2.538	2.574
2.457	2.538	2.565
2.450	2.541	2.559
2.450	2.537	2.547
2.452	2.544	2.539
2.453	2.541	2.528
2.455	2.534	2.518
2.454	2.536	2.518
2.459	2.538	2.511
2.457	2.537	2.499
2.458	2.541	2.513
2.460	2.533	2.513
2.456	2.537	2.515
2.462	2.538	2.525
2.467	2.539	2.527
2.467	2.540	2.537
2.462	2.537	2.541
2.462	2.539	2.540
2.464	2.535	2.537
2.465	2.541	2.542
2.465	2.536	2.547
2.466	2.540	2.560
2.463	2.540	2.567
2.462	2.538	2.567
2.453	2.538	2.564
2.457	2.535	2.555
2.458	2.535	2.550
2.456	2.533	2.525
2.462	2.531	2.521
2.464	2.536	2.511
2.463	2.540	2.503
2.460	2.541	2.501
2.460	2.534	2.505
2.457	2.535	2.506
2.452	2.538	2.503
2.464	2.540	2.514
2.467	2.542	2.511
2.475	2.540	2.520
2.473	2.539	2.526
2.468	2.541	2.532
2.466	2.540	2.535
2.455	2.543	2.528
2.457	2.536	2.515
2.459	2.538	2.493
2.447	2.534	2.486
2.451	2.540	2.480
2.455	2.538	2.479
2.457	2.532	2.461
2.454	2.541	2.454
2.460	2.538	2.454
2.455	2.537	2.460
2.460	2.538	2.474
2.462	2.541	2.486
2.470	2.535	2.498
2.466	2.541	2.513
2.460	2.534	2.530
2.464	2.533	2.537
2.462	2.536	2.548
2.464	2.541	2.547
2.467	2.535	2.532
2.467	2.533	2.532
2.469	2.535	2.539
2.462	2.538	2.546
2.464	2.536	2.532
2.460	2.538	2.516
2.455	2.533	2.506
2.471	2.532	2.500
2.466	2.537	2.483
2.464	2.536	2.479
2.457	2.535	2.485
2.457	2.533	2.493
2.459	2.533	2.498
2.456	2.539	2.496
2.462	2.541	2.501
2.458	2.535	2.514
2.458	2.538	2.510
2.455	2.534	2.517
2.455	2.540	2.518
2.462	2.541	2.520
2.454	2.537	2.514
2.462	2.534	2.518
2.459	2.534	2.518
2.457	2.535	2.516
2.460	2.535	2.509
2.458	2.540	2.496
2.454	2.538	2.498
2.455	2.532	2.497
2.452	2.535	2.486
2.460	2.531	2.481
2.445	2.531	2.474
2.452	2.538	2.463
2.460	2.542	2.455
2.460	2.539	2.456
2.459	2.535	2.459
2.456	2.532	2.456
2.455	2.535	2.451
2.460	2.540	2.456
2.460	2.540	2.469
2.457	2.537	2.479
2.454	2.540	2.506
2.454	2.537	2.517
2.452	2.538	2.523
2.453	2.532	2.522
2.450	2.536	2.519
2.455	2.537	2.508
2.445	2.535	2.496
2.455	2.531	2.481
2.452	2.538	2.491
2.451	2.540	2.495
2.454	2.538	2.503
2.459	2.538	2.505
2.458	2.540	2.515
2.460	2.535	2.538
2.455	2.543	2.547
2.457	2.535	2.552
2.463	2.540	2.551
2.455	2.540	2.542
2.460	2.534	2.530
2.460	2.531	2.526
2.458	2.540	2.517
2.453	2.541	2.505
2.449	2.535	2.496
2.460	2.540	2.479
2.457	2.540	2.473
2.455	2.534	2.486
2.452	2.537	2.482
2.451	2.538	2.496
2.447	2.541	2.493
2.459	2.536	2.487
2.455	2.542	2.491
2.457	2.544	2.491
2.452	2.532	2.501
2.460	2.535	2.505
2.455	2.539	2.506
2.455	2.541	2.503
2.459	2.535	2.506
2.457	2.538	2.516
2.462	2.540	2.510
2.465	2.535	2.498
2.465	2.538	2.508
2.464	2.538	2.518
2.457	2.534	2.523
2.463	2.538	2.518
2.460	2.540	2.508
2.465	2.538	2.498
2.473	2.541	2.498
2.470	2.540	2.506
2.471	2.543	2.518
2.469	2.538	2.527
2.472	2.535	2.534
2.469	2.535	2.532
2.470	2.537	2.530
2.469	2.541	2.527
2.469	2.536	2.537
2.472	2.541	2.539
2.470	2.529	2.538
2.470	2.535	2.526
2.469	2.530	2.523
2.467	2.537	2.519
2.472	2.538	2.513
2.465	2.538	2.511
2.464	2.534	2.508
2.465	2.535	2.520
2.464	2.532	2.540
2.470	2.538	2.550
2.470	2.540	2.559
2.470	2.542	2.563
2.469	2.542	2.565
2.468	2.538	2.560
2.473	2.540	2.559
2.477	2.538	2.569
2.477	2.538	2.570
2.479	2.538	2.569
2.477	2.541	2.573
2.475	2.546	2.570
2.471	2.540	2.556
2.469	2.532	2.557
2.472	2.540	2.544
2.470	2.539	2.539
2.467	2.535	2.540
2.469	2.540	2.543
2.462	2.537	2.542
2.460	2.538	2.535
2.463	2.540	2.517
2.462	2.540	2.511
2.469	2.537	2.511
2.472	2.538	2.512
2.473	2.541	2.518
2.470	2.537	2.512
2.472	2.535	2.513
2.469	2.542	2.519
2.467	2.537	2.535
2.468	2.534	2.540
2.470	2.540	2.544
2.464	2.543	2.548
2.467	2.541	2.545
2.465	2.540	2.539
2.470	2.540	2.553
2.463	2.540	2.565
2.469	2.540	2.577
2.469	2.535	2.584
2.466	2.538	2.577
2.462	2.539	2.569
2.458	2.542	2.559
2.462	2.533	2.539
2.462	2.538	2.540
2.465	2.540	2.531
2.467	2.540	2.524
2.462	2.540	2.525
2.470	2.533	2.531
2.468	2.540	2.532
2.467	2.540	2.550
2.468	2.538	2.544
2.477	2.535	2.540
2.463	2.541	2.535
2.470	2.544	2.543
2.470	2.533	2.539
2.462	2.534	2.535
2.472	2.536	2.542
2.465	2.535	2.546
2.465	2.543	2.547
2.458	2.541	2.531
2.470	2.537	2.533
2.472	2.535	2.535
2.475	2.531	2.520
2.472	2.536	2.517
2.470	2.539	2.520
2.462	2.542	2.506
2.470	2.538	2.501
2.469	2.532	2.494
2.465	2.537	2.489
2.469	2.541	2.496
2.470	2.538	2.501
2.469	2.541	2.515
2.469	2.540	2.522
2.469	2.532	2.535
2.469	2.538	2.541
2.475	2.538	2.540
2.472	2.541	2.539
2.473	2.539	2.540
2.473	2.539	2.545
2.470	2.536	2.522
2.469	2.535	2.518
2.469	2.537	2.508
2.469	2.538	2.501
2.474	2.540	2.499
2.470	2.540	2.498
2.473	2.540	2.498
2.468	2.538	2.496
2.460	2.542	2.492
2.460	2.541	2.488
2.450	2.541	2.481
2.460	2.534	2.487
2.455	2.537	2.475
2.455	2.537	2.471
2.454	2.540	2.474
2.457	2.536	2.479
2.452	2.540	2.489
2.452	2.538	2.503
2.458	2.538	2.522
2.452	2.531	2.510
2.450	2.538	2.511
2.454	2.535	2.511
2.459	2.535	2.513
2.453	2.534	2.517
2.454	2.536	2.510
2.453	2.535	2.506
2.457	2.536	2.511
2.458	2.540	2.525
2.455	2.536	2.523
2.452	2.540	2.522
2.454	2.535	2.517
2.450	2.531	2.509
2.447	2.533	2.505
2.453	2.541	2.510
2.449	2.540	2.516
2.450	2.539	2.521
2.455	2.537	2.522
2.445	2.540	2.528
2.450	2.538	2.520
2.447	2.537	2.527
2.445	2.540	2.527
2.451	2.540	2.536
2.456	2.533	2.545
2.453	2.535	2.557
2.455	2.538	2.558
2.462	2.536	2.565
2.469	2.536	2.557
2.464	2.539	2.559
2.460	2.535	2.556
2.450	2.529	2.550
2.455	2.540	2.539
2.448	2.538	2.540
2.441	2.533	2.534
2.450	2.532	2.524
2.445	2.535	2.514
2.449	2.534	2.499
2.447	2.532	2.499
2.450	2.532	2.496
2.450	2.535	2.503
2.445	2.535	2.511
2.451	2.537	2.515
2.444	2.537	2.528
2.453	2.528	2.552
2.460	2.532	2.565
2.452	2.536	2.564
2.452	2.535	2.561
2.450	2.522	2.550
2.452	2.534	2.535
2.455	2.528	2.530
2.454	2.531	2.530
2.454	2.533	2.539
2.452	2.539	2.550
2.450	2.535	2.560
2.448	2.536	2.559
2.457	2.535	2.549
2.452	2.533	2.547
2.457	2.538	2.530
2.456	2.533	2.523
2.457	2.531	2.511
2.456	2.533	2.515
2.462	2.532	2.518
2.462	2.530	2.519
2.457	2.535	2.525
2.457	2.525	2.516
2.460	2.536	2.520
2.462	2.525	2.532
2.458	2.530	2.552
2.451	2.531	2.559
2.449	2.532	2.550
2.450	2.531	2.545
2.454	2.530	2.555
2.460	2.536	2.543
2.460	2.538	2.548
2.453	2.530	2.548
2.455	2.540	2.534
2.458	2.528	2.527
2.452	2.536	2.530
2.451	2.531	2.536
2.455	2.529	2.537
2.460	2.535	2.542
2.452	2.531	2.545
2.455	2.533	2.555
2.450	2.533	2.567
2.460	2.538	2.572
2.460	2.537	2.566
2.454	2.540	2.559
2.451	2.535	2.573
2.460	2.539	2.580
2.452	2.537	2.584
2.457	2.535	2.584
2.452	2.532	2.574
2.465	2.538	2.552
2.454	2.534	2.540
2.455	2.538	2.536
2.453	2.540	2.528
2.444	2.531	2.522
2.450	2.532	2.519
2.440	2.535	2.518
2.450	2.530	2.513
2.457	2.530	2.509
2.450	2.530	2.527
2.452	2.535	2.537
2.460	2.538	2.545
2.449	2.533	2.543
2.446	2.532	2.542
2.455	2.533	2.548
2.452	2.535	2.557
2.457	2.536	2.562
2.453	2.533	2.551
2.453	2.535	2.535
2.455	2.531	2.537
2.453	2.531	2.545
2.457	2.531	2.559
2.448	2.527	2.567
2.458	2.537	2.557
2.450	2.532	2.543
2.460	2.532	2.533
2.460	2.531	2.523
2.457	2.525	2.520
2.457	2.535	2.515
2.455	2.531	2.527
2.453	2.538	2.537
2.461	2.536	2.540
2.457	2.534	2.542
2.457	2.530	2.541
2.452	2.534	2.532
2.455	2.535	2.528
2.454	2.533	2.519
2.455	2.531	2.523
2.455	2.530	2.525
2.446	2.530	2.532
2.454	2.538	2.542
2.447	2.532	2.536
2.455	2.538	2.540
2.454	2.535	2.537
2.455	2.530	2.539
2.452	2.533	2.550
2.445	2.523	2.554
2.455	2.531	2.549
2.452	2.530	2.539
2.449	2.533	2.533
2.450	2.528	2.523
2.450	2.531	2.517
2.452	2.528	2.518
2.457	2.530	2.511
2.462	2.530	2.513
2.462	2.538	2.505
2.458	2.532	2.505
2.458	2.533	2.532
2.457	2.534	2.542
2.455	2.530	2.555
2.455	2.527	2.563
2.457	2.533	2.567
2.457	2.533	2.565
2.453	2.533	2.556
2.452	2.532	2.559
2.450	2.533	2.566
2.454	2.534	2.573
2.452	2.533	2.560
2.462	2.535	2.560
2.457	2.531	2.566
2.462	2.528	2.563
2.455	2.531	2.561
2.460	2.537	2.557
2.462	2.535	2.554
2.460	2.528	2.542
2.457	2.531	2.536
2.451	2.532	2.535
2.462	2.530	2.534
2.464	2.528	2.540
2.453	2.535	2.537
2.455	2.530	2.542
2.455	2.529	2.547
2.457	2.534	2.546
2.458	2.531	2.545
2.458	2.529	2.542
2.450	2.531	2.540
2.453	2.533	2.542
2.452	2.531	2.536
2.457	2.532	2.532
2.459	2.531	2.531
2.452	2.531	2.528
2.455	2.540	2.515
2.448	2.537	2.511
2.452	2.535	2.523
2.444	2.534	2.526
2.445	2.531	2.533
2.447	2.530	2.540
2.455	2.530	2.540
2.450	2.533	2.542
2.445	2.528	2.544
2.452	2.530	2.542
2.448	2.528	2.542
2.447	2.533	2.533
2.442	2.531	2.530
2.452	2.532	2.515
2.450	2.530	2.515
2.445	2.535	2.515
2.453	2.531	2.513
2.443	2.531	2.532
2.455	2.535	2.540
2.462	2.536	2.540
2.458	2.527	2.541
2.450	2.530	2.547
2.460	2.533	2.558
2.454	2.527	2.559
2.458	2.531	2.560
2.462	2.536	2.558
2.460	2.530	2.551
2.462	2.528	2.548
2.458	2.532	2.550
2.462	2.530	2.560
2.457	2.530	2.567
2.457	2.530	2.572
2.459	2.530	2.571
2.470	2.528	2.569
2.467	2.530	2.591
2.464	2.531	2.595
2.454	2.527	2.586
2.460	2.533	2.565
2.462	2.533	2.550
2.464	2.536	2.540
2.462	2.531	2.531
2.462	2.536	2.530
2.470	2.527	2.531
2.464	2.533	2.532
2.467	2.530	2.533
2.469	2.531	2.538
2.470	2.533	2.534
2.470	2.533	2.528
2.462	2.532	2.523
2.467	2.533	2.520
2.469	2.530	2.523
2.470	2.528	2.535
2.470	2.534	2.547
2.464	2.530	2.545
2.467	2.529	2.545
2.463	2.530	2.559
2.462	2.531	2.560
2.462	2.536	2.562
2.470	2.534	2.559
2.470	2.533	2.559
2.470	2.531	2.554
2.460	2.533	2.531
2.455	2.535	2.525
2.462	2.538	2.532
2.463	2.534	2.523
2.459	2.534	2.518
2.460	2.529	2.516
2.460	2.530	2.505
2.464	2.531	2.493
2.462	2.533	2.493
2.465	2.533	2.508
2.467	2.533	2.520
2.467	2.532	2.528
2.473	2.533	2.538
2.471	2.531	2.542
2.466	2.533	2.538
2.469	2.526	2.530
2.462	2.531	2.522
2.467	2.526	2.524
2.464	2.531	2.531
2.465	2.531	2.526
2.467	2.528	2.520
2.465	2.530	2.515
2.466	2.528	2.505
2.466	2.527	2.504
2.467	2.531	2.503
2.469	2.535	2.515
2.465	2.530	2.518
2.467	2.531	2.517
2.475	2.532	2.517
2.477	2.537	2.509
2.473	2.532	2.501
2.472	2.530	2.506
2.463	2.533	2.503
2.465	2.532	2.508
2.465	2.533	2.523
2.460	2.528	2.535
2.465	2.533	2.539
2.470	2.526	2.535
2.480	2.530	2.538
2.480	2.531	2.535
2.473	2.530	2.522
2.466	2.525	2.524
2.474	2.525	2.532
2.474	2.533	2.533
2.479	2.538	2.522
2.477	2.535	2.518
2.470	2.533	2.518
2.474	2.532	2.522
2.478	2.532	2.527
2.476	2.531	2.530
2.465	2.533	2.540
2.470	2.530	2.537
2.469	2.535	2.529
2.465	2.536	2.524
2.464	2.530	2.530
2.470	2.535	2.540
2.462	2.538	2.533
2.459	2.525	2.527
2.460	2.535	2.533
2.465	2.530	2.532
2.467	2.528	2.526
2.472	2.530	2.523
2.474	2.528	2.514
2.469	2.530	2.510
2.469	2.524	2.513
2.464	2.530	2.529
2.468	2.526	2.530
2.470	2.527	2.534
2.461	2.532	2.545
2.470	2.525	2.557
2.470	2.530	2.551
2.469	2.535	2.550
2.469	2.532	2.537
2.473	2.531	2.523
2.469	2.527	2.520
2.468	2.527	2.516
2.461	2.524	2.513
2.463	2.531	2.515
2.465	2.528	2.515
2.457	2.530	2.503
2.462	2.530	2.501
2.455	2.531	2.496
2.460	2.529	2.500
2.465	2.526	2.499
2.470	2.530	2.493
2.474	2.525	2.493
2.468	2.525	2.492
2.470	2.528	2.498
2.482	2.531	2.500
2.484	2.530	2.504
2.480	2.530	2.506
2.470	2.532	2.501
2.469	2.536	2.504
2.475	2.531	2.523
2.473	2.528	2.522
2.466	2.530	2.528
2.470	2.528	2.530
2.465	2.531	2.530
2.470	2.533	2.524
2.464	2.531	2.517
2.464	2.529	2.525
2.464	2.531	2.548
2.470	2.531	2.567
2.466	2.525	2.567
2.471	2.532	2.560
2.465	2.531	2.552
2.462	2.530	2.543
2.464	2.533	2.540
2.464	2.532	2.535
2.460	2.528	2.530
2.459	2.531	2.540
2.470	2.530	2.547
2.470	2.535	2.554
2.465	2.532	2.561
2.465	2.526	2.557
2.467	2.535	2.550
2.469	2.532	2.540
2.464	2.530	2.535
2.465	2.530	2.528
2.459	2.530	2.532
2.468	2.530	2.535
2.473	2.533	2.537
2.473	2.528	2.540
2.473	2.531	2.560
2.477	2.534	2.570
2.474	2.529	2.559
2.477	2.529	2.560
2.470	2.535	2.546
2.467	2.536	2.534
2.473	2.528	2.534
2.469	2.533	2.545
2.468	2.538	2.550
2.472	2.530	2.548
2.477	2.532	2.541
2.475	2.530	2.540
2.479	2.535	2.541
2.479	2.532	2.543
2.472	2.531	2.542
2.473	2.532	2.535
2.477	2.530	2.534
2.468	2.530	2.515
2.472	2.525	2.503
2.482	2.533	2.516
2.465	2.527	2.530
2.462	2.530	2.540
2.462	2.530	2.543
2.460	2.531	2.547
2.460	2.532	2.550
2.468	2.530	2.560
2.462	2.536	2.562
2.460	2.532	2.562
2.467	2.535	2.554
2.462	2.531	2.548
2.462	2.535	2.554
2.467	2.538	2.560
2.470	2.541	2.562
2.472	2.538	2.571
2.469	2.533	2.573
2.469	2.535	2.561
2.470	2.538	2.555
2.464	2.531	2.557
2.467	2.537	2.557
2.460	2.530	2.560
2.460	2.530	2.560
2.457	2.533	2.555
2.455	2.533	2.555
2.457	2.533	2.559
2.456	2.532	2.567
2.462	2.530	2.574
2.463	2.530	2.577
2.450	2.535	2.587
2.454	2.528	2.590
2.457	2.538	2.580
2.457	2.539	2.565
2.467	2.530	2.558
2.458	2.527	2.567
2.460	2.532	2.559
2.462	2.535	2.557
2.465	2.539	2.560
2.469	2.535	2.566
2.469	2.532	2.569
2.474	2.537	2.541
2.469	2.533	2.537
2.468	2.532	2.532
2.469	2.534	2.533
2.462	2.536	2.550
2.467	2.535	2.549
2.462	2.530	2.550
2.467	2.532	2.560
2.457	2.530	2.560
2.452	2.538	2.555
2.460	2.532	2.555
2.460	2.538	2.570
2.464	2.537	2.578
2.459	2.537	2.584
2.458	2.535	2.589
2.460	2.533	2.589
2.462	2.532	2.584
2.463	2.536	2.587
2.462	2.536	2.589
2.470	2.541	2.582
2.470	2.535	2.587
2.468	2.538	2.594
2.465	2.532	2.593
2.464	2.543	2.591
2.464	2.537	2.595
2.457	2.535	2.600
2.455	2.532	2.601
2.460	2.538	2.593
2.457	2.541	2.583
2.450	2.539	2.581
2.461	2.531	2.582
2.454	2.533	2.592
2.450	2.533	2.597
2.450	2.539	2.596
2.452	2.535	2.582
2.445	2.540	2.601
2.444	2.541	2.610
2.445	2.533	2.604
2.445	2.538	2.587
2.447	2.537	2.584
2.454	2.538	2.588
2.452	2.539	2.604
2.460	2.536	2.594
2.457	2.535	2.584
2.455	2.535	2.577
2.452	2.532	2.584
2.450	2.540	2.588
2.443	2.540	2.580
2.453	2.541	2.585
2.448	2.538	2.594
2.451	2.535	2.602
2.455	2.540	2.591
2.453	2.541	2.579
2.455	2.539	2.576
2.452	2.537	2.577
2.455	2.535	2.579
2.455	2.541	2.580
2.447	2.542	2.582
2.452	2.541	2.576
2.452	2.538	2.597
2.452	2.538	2.611
2.448	2.540	2.613
2.454	2.539	2.606
2.460	2.541	2.604
2.457	2.543	2.614
2.463	2.539	2.627
2.459	2.546	2.621
2.456	2.537	2.616
2.465	2.540	2.611
2.457	2.543	2.626
2.459	2.541	2.626
2.462	2.538	2.631
2.460	2.538	2.632
2.460	2.537	2.619
2.470	2.537	2.616
2.465	2.537	2.604
2.467	2.538	2.601
2.467	2.540	2.591
2.469	2.541	2.580
2.459	2.533	2.584
2.457	2.541	2.601
2.452	2.540	2.608
2.452	2.540	2.622
2.465	2.540	2.621
2.456	2.540	2.622
2.459	2.537	2.614
2.460	2.541	2.602
2.458	2.538	2.605
2.457	2.541	2.601
2.450	2.541	2.604
2.450	2.541	2.604
2.457	2.535	2.593
2.450	2.540	2.589
2.449	2.535	2.586
2.446	2.541	2.590
2.448	2.540	2.589
2.455	2.540	2.581
2.450	2.544	2.575
2.452	2.550	2.569
2.448	2.540	2.566
2.447	2.541	2.575
2.458	2.543	2.586
2.458	2.542	2.583
2.445	2.547	2.587
2.453	2.541	2.581
2.450	2.545	2.574
2.450	2.538	2.570
2.450	2.536	2.560
2.450	2.538	2.574
2.452	2.541	2.581
2.448	2.540	2.574
2.452	2.538	2.567
2.443	2.536	2.569
2.450	2.546	2.584
2.455	2.539	2.589
2.452	2.535	2.595
2.447	2.540	2.592
2.460	2.540	2.593
2.454	2.540	2.586
2.465	2.538	2.585
2.464	2.541	2.577
2.463	2.535	2.582
2.469	2.532	2.590
2.462	2.537	2.600
2.465	2.535	2.611
2.462	2.535	2.611
2.470	2.535	2.590
2.465	2.541	2.565
2.465	2.540	2.555
2.465	2.543	2.557
2.461	2.540	2.565
2.462	2.538	2.565
2.462	2.540	2.557
2.462	2.541	2.552
2.462	2.535	2.540
2.461	2.540	2.539
2.457	2.538	2.530
2.465	2.533	2.536
2.451	2.539	2.549
2.452	2.541	2.552
2.457	2.541	2.549
2.457	2.535	2.554
2.455	2.540	2.564
2.459	2.538	2.577
2.464	2.530	2.594
2.464	2.536	2.596
2.460	2.537	2.593
2.462	2.540	2.596
2.453	2.538	2.584
2.453	2.532	2.576
2.452	2.539	2.565
2.452	2.536	2.564
2.455	2.538	2.554
2.450	2.533	2.540
2.449	2.533	2.542
2.455	2.541	2.545
2.460	2.541	2.535
2.455	2.533	2.539
2.462	2.534	2.549
2.465	2.535	2.549
2.464	2.541	2.557
2.457	2.539	2.557
2.465	2.536	2.558
2.462	2.541	2.563
2.461	2.533	2.561
2.471	2.540	2.552
2.467	2.535	2.565
2.470	2.536	2.569
2.464	2.536	2.578
2.465	2.535	2.593
2.464	2.532	2.596
2.464	2.538	2.596
2.464	2.536	2.584
2.466	2.536	2.573
2.459	2.539	2.570
2.460	2.535	2.562
2.467	2.531	2.557
2.460	2.535	2.560
2.464	2.531	2.553
2.462	2.538	2.547
2.469	2.538	2.548
2.462	2.538	2.533
2.460	2.530	2.537
2.460	2.529	2.535
2.459	2.535	2.540
2.465	2.533	2.550
2.458	2.532	2.548
2.447	2.541	2.540
2.453	2.536	2.531
2.455	2.541	2.540
2.457	2.530	2.550
2.453	2.531	2.555
2.449	2.540	2.554
2.442	2.538	2.545
2.455	2.540	2.542
2.452	2.537	2.552
2.450	2.540	2.552
2.452	2.538	2.549
2.452	2.539	2.539
2.452	2.539	2.525
2.458	2.530	2.523
2.459	2.536	2.523
2.456	2.540	2.534
2.457	2.538	2.552
2.458	2.535	2.566
2.465	2.535	2.568
2.467	2.532	2.562
2.460	2.530	2.558
2.457	2.532	2.555
2.458	2.535	2.547
2.451	2.534	2.558
2.453	2.537	2.560
2.464	2.539	2.562
2.462	2.535	2.557
2.457	2.530	2.562
2.454	2.541	2.572
2.455	2.530	2.581
2.464	2.532	2.590
2.465	2.533	2.593
2.466	2.533	2.596
2.457	2.532	2.589
2.462	2.536	2.584
2.465	2.533	2.570
2.457	2.533	2.562
2.459	2.530	2.549
2.455	2.534	2.545
2.457	2.533	2.539
2.463	2.531	2.540
2.462	2.533	2.540
2.452	2.536	2.541
2.465	2.535	2.528
2.464	2.533	2.515
2.462	2.530	2.523
2.460	2.536	2.521
2.465	2.536	2.541
2.460	2.534	2.550
2.460	2.533	2.556
2.465	2.535	2.550
2.457	2.535	2.559
2.460	2.535	2.555
2.455	2.536	2.561
2.455	2.533	2.561
2.454	2.535	2.558
2.460	2.537	2.547
2.460	2.535	2.542
2.458	2.530	2.539
2.454	2.533	2.524
2.451	2.530	2.527
2.445	2.536	2.528
2.450	2.534	2.533
2.452	2.538	2.539
2.457	2.541	2.530
2.450	2.533	2.540
2.452	2.532	2.546
2.455	2.532	2.545
2.457	2.532	2.543
2.454	2.528	2.545
2.453	2.533	2.555
2.452	2.533	2.555
2.460	2.534	2.564
2.459	2.530	2.555
2.462	2.521	2.550
2.459	2.532	2.552
2.452	2.534	2.548
2.458	2.538	2.557
2.452	2.530	2.569
2.450	2.531	2.582
2.462	2.528	2.579
2.460	2.533	2.571
2.457	2.535	2.561
2.465	2.528	2.559
2.460	2.534	2.552
2.463	2.529	2.541
2.454	2.530	2.538
2.452	2.537	2.539
2.454	2.535	2.569
2.458	2.533	2.585
2.457	2.532	2.610
2.454	2.528	2.603
2.459	2.531	2.596
2.467	2.528	2.578
2.458	2.536	2.574
2.457	2.532	2.574
2.459	2.541	2.575
2.457	2.533	2.562
2.458	2.532	2.554
2.457	2.528	2.549
2.447	2.535	2.539
2.450	2.528	2.542
2.452	2.530	2.539
2.458	2.530	2.537
2.453	2.530	2.535
2.453	2.533	2.543
2.454	2.528	2.550
2.450	2.533	2.545
2.453	2.532	2.545
2.455	2.529	2.547
2.457	2.531	2.545
2.457	2.531	2.530
2.461	2.533	2.527
2.454	2.525	2.525
2.454	2.531	2.511
2.457	2.530	2.506
2.458	2.530	2.496
2.454	2.525	2.504
2.452	2.532	2.503
2.460	2.530	2.512
2.457	2.534	2.511
2.458	2.532	2.518
2.457	2.535	2.513
2.453	2.527	2.523
2.462	2.538	2.528
2.455	2.530	2.531
2.459	2.530	2.525
2.459	2.535	2.520
2.452	2.532	2.515
2.455	2.530	2.507
2.452	2.530	2.498
2.456	2.533	2.482
2.455	2.538	2.474
2.457	2.536	2.486
2.460	2.527	2.501
2.459	2.528	2.501
2.452	2.535	2.515
2.454	2.533	2.523
2.460	2.530	2.532
2.460	2.530	2.535
2.459	2.530	2.545
2.453	2.530	2.555
2.445	2.532	2.560
2.448	2.535	2.561
2.458	2.531	2.565
2.462	2.530	2.566
2.457	2.528	2.569
2.463	2.527	2.581
2.460	2.528	2.587
2.462	2.530	2.574
2.448	2.523	2.567
2.455	2.535	2.560
2.460	2.533	2.572
2.460	2.533	2.562
2.457	2.532	2.552
2.457	2.532	2.545
2.452	2.531	2.528
2.455	2.532	2.511
2.461	2.534	2.517
2.449	2.524	2.520
2.453	2.531	2.528
2.452	2.525	2.535
2.452	2.536	2.540
2.454	2.528	2.542
2.452	2.525	2.550
2.452	2.528	2.544
2.451	2.527	2.544
2.451	2.531	2.542
2.440	2.530	2.550
2.443	2.530	2.557
2.448	2.531	2.560
2.447	2.529	2.560
2.447	2.530	2.564
2.448	2.533	2.562
2.450	2.536	2.559
2.453	2.533	2.549
2.447	2.535	2.552
2.442	2.538	2.550
2.448	2.530	2.532
2.448	2.530	2.525
2.447	2.533	2.534
2.449	2.531	2.535
2.445	2.532	2.523
2.443	2.538	2.521
2.441	2.531	2.523
2.448	2.532	2.523
2.443	2.528	2.544
2.450	2.531	2.549
2.448	2.530	2.537
2.444	2.533	2.521
2.448	2.531	2.508
2.445	2.536	2.498
2.445	2.530	2.485
2.444	2.531	2.489
2.444	2.529	2.492
2.446	2.535	2.501
2.460	2.525	2.501
2.458	2.535	2.501
2.455	2.530	2.498
2.454	2.531	2.504
2.455	2.532	2.506
2.462	2.526	2.506
2.455	2.530	2.515
2.454	2.533	2.532
2.454	2.533	2.540
2.455	2.528	2.545
2.452	2.524	2.522
2.457	2.530	2.510
2.454	2.521	2.502
2.450	2.531	2.495
2.449	2.523	2.503
2.453	2.536	2.512
2.453	2.531	2.520
2.447	2.532	2.525
2.455	2.532	2.530
2.452	2.531	2.537
2.459	2.533	2.544
2.460	2.531	2.548
2.464	2.528	2.553
2.462	2.531	2.562
2.463	2.526	2.559
2.464	2.530	2.545
2.459	2.535	2.544
2.464	2.536	2.560
2.460	2.532	2.562
2.460	2.533	2.572
2.454	2.529	2.570
2.455	2.532	2.577
2.455	2.540	2.568
2.457	2.531	2.562
2.457	2.528	2.552
2.459	2.537	2.557
2.462	2.534	2.548
2.460	2.535	2.552
2.452	2.533	2.557
2.450	2.530	2.557
2.455	2.536	2.547
2.460	2.532	2.540
2.467	2.536	2.540
2.460	2.528	2.539
2.455	2.532	2.546
2.462	2.526	2.540
2.460	2.536	2.538
2.464	2.532	2.528
2.462	2.525	2.532
2.457	2.528	2.525
2.457	2.523	2.525
2.468	2.535	2.541
2.459	2.534	2.535
2.458	2.533	2.532
2.462	2.535	2.524
2.460	2.533	2.530
2.462	2.536	2.527
2.467	2.527	2.528
2.462	2.527	2.550
2.460	2.532	2.537
2.462	2.538	2.527
2.470	2.530	2.520
2.460	2.532	2.515
2.465	2.531	2.518
2.460	2.533	2.515
2.455	2.531	2.520
2.459	2.532	2.521
2.457	2.533	2.522
2.459	2.535	2.516
2.462	2.532	2.508
2.465	2.531	2.511
2.462	2.529	2.511
2.467	2.531	2.513
2.465	2.531	2.512
2.462	2.533	2.515
2.464	2.535	2.528
2.472	2.533	2.540
2.469	2.528	2.546
2.471	2.535	2.545
2.472	2.538	2.552
2.467	2.538	2.553
2.472	2.538	2.549
2.472	2.530	2.549
2.469	2.533	2.558
2.469	2.531	2.552
2.467	2.530	2.551
2.468	2.531	2.560
2.470	2.532	2.567
2.464	2.533	2.564
2.465	2.531	2.542
2.462	2.535	2.536
2.463	2.534	2.538
2.457	2.532	2.538
2.454	2.531	2.540
2.457	2.531	2.544
2.465	2.528	2.554
2.469	2.530	2.560
2.470	2.533	2.554
2.473	2.533	2.569
2.470	2.528	2.587
2.470	2.538	2.589
2.469	2.535	2.591
2.472	2.535	2.595
2.472	2.530	2.581
2.475	2.538	2.570
2.473	2.533	2.567
2.469	2.535	2.554
2.464	2.534	2.561
2.460	2.535	2.571
2.462	2.527	2.585
2.467	2.538	2.574
2.462	2.541	2.567
2.467	2.531	2.557
2.463	2.530	2.571
2.463	2.536	2.575
2.457	2.534	2.572
2.454	2.532	2.567
2.458	2.528	2.570
2.455	2.533	2.572
2.454	2.533	2.576
2.449	2.530	2.585
2.457	2.534	2.594
2.454	2.538	2.598
2.460	2.530	2.604
2.463	2.530	2.605
2.457	2.527	2.601
2.459	2.535	2.607
2.455	2.535	2.611
2.459	2.538	2.604
2.455	2.538	2.591
2.452	2.537	2.571
2.455	2.539	2.562
2.453	2.523	2.559
2.449	2.533	2.565
2.450	2.535	2.560
2.447	2.530	2.551
2.443	2.533	2.560
2.448	2.530	2.562
2.449	2.531	2.558
2.454	2.525	2.557
2.455	2.530	2.560
2.460	2.530	2.563
2.452	2.531	2.562
2.450	2.528	2.564
2.455	2.536	2.552
2.453	2.529	2.547
2.452	2.529	2.540
2.452	2.525	2.525
2.455	2.527	2.516
2.447	2.533	2.521
2.458	2.527	2.528
2.451	2.528	2.523
2.453	2.529	2.523
2.450	2.530	2.512
2.458	2.530	2.516
2.452	2.531	2.513
2.452	2.529	2.508
2.453	2.531	2.501
2.447	2.526	2.489
2.443	2.530	2.491
2.444	2.532	2.494
2.450	2.526	2.493
2.460	2.535	2.503
2.458	2.531	2.513
2.452	2.528	2.517
2.449	2.533	2.514
2.452	2.523	2.500
2.450	2.525	2.497
2.453	2.529	2.486
2.442	2.527	2.479
2.448	2.523	2.478
2.443	2.530	2.483
2.443	2.532	2.491
2.445	2.530	2.489
2.447	2.525	2.490
2.445	2.531	2.496
2.440	2.529	2.495
2.450	2.533	2.497
2.448	2.532	2.495
2.445	2.533	2.489
2.445	2.532	2.489
2.443	2.528	2.500
2.450	2.534	2.504
2.445	2.533	2.506
2.443	2.523	2.487
2.443	2.524	2.473
2.443	2.523	2.466
2.442	2.533	2.469
2.443	2.531	2.477
2.443	2.532	2.465
2.445	2.528	2.468
2.447	2.531	2.468
2.440	2.526	2.486
2.443	2.529	2.503
2.445	2.529	2.518
2.453	2.530	2.513
2.452	2.533	2.505
2.452	2.528	2.493
2.448	2.530	2.489
2.446	2.523	2.490
2.447	2.531	2.488
2.450	2.535	2.487
2.450	2.538	2.493
2.450	2.533	2.495
2.452	2.530	2.511
2.451	2.531	2.512
2.447	2.532	2.507
2.455	2.527	2.503
2.448	2.530	2.503
2.445	2.533	2.508
2.450	2.530	2.511
2.450	2.536	2.503
2.450	2.532	2.496
2.458	2.527	2.490
2.454	2.523	2.496
2.456	2.523	2.495
2.450	2.531	2.491
2.450	2.527	2.495
2.454	2.530	2.497
2.455	2.526	2.496
2.450	2.528	2.479
2.454	2.531	2.476
2.455	2.532	2.471
2.454	2.521	2.478
2.446	2.530	2.488
2.457	2.530	2.511
2.450	2.530	2.525
2.452	2.530	2.527
2.454	2.528	2.532
2.447	2.531	2.547
2.455	2.530	2.552
2.448	2.529	2.557
2.448	2.531	2.562
2.441	2.528	2.555
2.445	2.533	2.544
2.455	2.533	2.538
2.445	2.535	2.538
2.442	2.524	2.543
2.452	2.526	2.543
2.450	2.535	2.537
2.448	2.531	2.531
2.444	2.525	2.530
2.437	2.531	2.531
2.438	2.530	2.531
2.440	2.533	2.532
2.442	2.524	2.530
2.440	2.531	2.520
2.440	2.531	2.520
2.445	2.530	2.520
2.446	2.525	2.515
2.445	2.531	2.513
2.436	2.525	2.516
2.440	2.528	2.518
2.443	2.531	2.523
2.443	2.530	2.518
2.442	2.526	2.523
2.443	2.523	2.547
2.433	2.528	2.557
2.435	2.535	2.560
2.434	2.531	2.565
2.432	2.530	2.568
2.437	2.530	2.567
2.435	2.533	2.569
2.435	2.530	2.567
2.438	2.530	2.570
2.440	2.527	2.559
2.440	2.529	2.545
2.446	2.529	2.537
2.447	2.530	2.537
2.445	2.530	2.536
2.450	2.531	2.537
2.448	2.527	2.545
2.448	2.532	2.543
2.452	2.535	2.518
2.445	2.528	2.523
2.445	2.528	2.519
2.449	2.530	2.548
2.452	2.536	2.559
2.446	2.533	2.560
2.448	2.531	2.554
2.448	2.535	2.564
2.450	2.533	2.563
2.450	2.526	2.560
2.442	2.527	2.548
2.445	2.530	2.533
2.448	2.527	2.532
2.446	2.532	2.540
2.451	2.533	2.542
2.453	2.533	2.553
2.445	2.523	2.549
2.450	2.542	2.547
2.455	2.537	2.552
2.440	2.528	2.558
2.445	2.530	2.557
2.441	2.530	2.560
2.437	2.530	2.551
2.443	2.531	2.560
2.450	2.528	2.577
2.448	2.532	2.586
2.452	2.525	2.603
2.445	2.531	2.575
2.450	2.537	2.562
2.454	2.535	2.557
2.448	2.526	2.557
2.442	2.528	2.540
2.436	2.533	2.533
2.440	2.536	2.525
2.443	2.533	2.516
2.445	2.528	2.511
2.445	2.528	2.520
2.445	2.532	2.535
2.438	2.535	2.562
2.443	2.528	2.566
2.446	2.528	2.582
2.442	2.535	2.584
2.443	2.531	2.579
2.445	2.531	2.571
2.453	2.533	2.576
2.447	2.532	2.581
2.445	2.528	2.582
2.450	2.528	2.581
2.453	2.530	2.582
2.444	2.531	2.577
2.445	2.527	2.575
2.445	2.530	2.568
2.445	2.529	2.562
2.445	2.527	2.552
2.445	2.531	2.539
2.440	2.533	2.523
2.440	2.531	2.514
2.443	2.530	2.523
2.439	2.531	2.515
2.439	2.530	2.515
2.443	2.532	2.505
2.448	2.533	2.502
2.443	2.530	2.493
2.443	2.533	2.488
2.452	2.530	2.493
2.450	2.531	2.503
2.451	2.531	2.503
2.448	2.530	2.525
2.445	2.528	2.548
2.448	2.528	2.545
2.450	2.531	2.544
2.442	2.533	2.542
2.447	2.521	2.540
2.447	2.530	2.530
2.440	2.530	2.514
2.440	2.536	2.517
2.434	2.531	2.523
2.438	2.530	2.523
2.443	2.525	2.524
2.445	2.522	2.528
2.440	2.531	2.512
2.437	2.528	2.515
2.447	2.525	2.532
2.448	2.531	2.540
2.448	2.530	2.547
2.448	2.528	2.562
2.454	2.535	2.564
2.449	2.530	2.585
2.455	2.528	2.591
2.452	2.531	2.587
2.452	2.530	2.589
2.447	2.525	2.594
2.457	2.528	2.597
2.453	2.530	2.604
2.455	2.531	2.601
2.459	2.533	2.597
2.452	2.530	2.575
2.457	2.522	2.571
2.443	2.525	2.574
2.450	2.529	2.577
2.455	2.524	2.577
2.460	2.520	2.577
2.453	2.531	2.570
2.457	2.521	2.577
2.460	2.525	2.572
2.454	2.525	2.562
2.457	2.523	2.555
2.455	2.526	2.552
2.452	2.525	2.555
2.452	2.527	2.566
2.462	2.523	2.565
2.460	2.529	2.560
2.457	2.531	2.557
2.454	2.524	2.562
2.453	2.524	2.559
2.445	2.523	2.562
2.448	2.523	2.541
2.447	2.525	2.532
2.450	2.523	2.527
2.453	2.527	2.525
2.454	2.523	2.528
2.448	2.530	2.516
2.448	2.523	2.518
2.450	2.525	2.530
2.448	2.531	2.528
2.451	2.525	2.528
2.448	2.522	2.524
2.450	2.517	2.518
2.443	2.528	2.525
2.448	2.525	2.523
2.442	2.521	2.521
2.448	2.525	2.520
2.450	2.531	2.508
2.452	2.523	2.509
2.449	2.526	2.516
2.452	2.528	2.525
2.445	2.526	2.528
2.443	2.531	2.532
2.453	2.536	2.526
2.452	2.522	2.523
2.448	2.521	2.523
2.445	2.523	2.518
2.450	2.530	2.513
2.453	2.526	2.531
2.452	2.525	2.542
2.457	2.528	2.542
2.453	2.525	2.557
2.453	2.523	2.569
2.457	2.528	2.582
2.448	2.531	2.577
2.445	2.529	2.572
2.448	2.525	2.574
2.451	2.522	2.567
2.450	2.520	2.550
2.450	2.525	2.539
2.448	2.525	2.549
2.440	2.525	2.559
2.442	2.526	2.578
2.446	2.526	2.580
2.445	2.526	2.570
2.445	2.530	2.552
2.445	2.525	2.540
2.445	2.523	2.530
2.445	2.525	2.532
2.443	2.528	2.520
2.445	2.523	2.523
2.445	2.523	2.534
2.445	2.530	2.541
2.435	2.531	2.535
2.440	2.530	2.530
2.438	2.525	2.526
2.440	2.530	2.525
2.430	2.529	2.531
2.438	2.524	2.523
2.440	2.525	2.516
2.440	2.534	2.513
2.443	2.535	2.518
2.445	2.531	2.530
2.437	2.535	2.542
2.441	2.533	2.544
2.440	2.523	2.555
2.440	2.531	2.544
2.440	2.525	2.540
2.440	2.530	2.527
2.439	2.528	2.523
2.441	2.526	2.523
2.439	2.521	2.518
2.440	2.529	2.511
2.441	2.520	2.517
2.438	2.528	2.522
2.436	2.525	2.530
2.440	2.528	2.531
2.440	2.532	2.526
2.440	2.528	2.527
2.441	2.527	2.540
2.438	2.527	2.544
2.440	2.527	2.541
2.438	2.521	2.540
2.435	2.524	2.540
2.441	2.523	2.535
2.440	2.519	2.532
2.433	2.525	2.531
2.440	2.523	2.538
2.441	2.523	2.534
2.433	2.526	2.536
2.435	2.526	2.525
2.438	2.524	2.518
2.440	2.528	2.523
2.443	2.528	2.530
2.445	2.528	2.527
2.440	2.531	2.537
2.445	2.527	2.547
2.446	2.530	2.542
2.445	2.527	2.544
2.443	2.525	2.537
2.445	2.526	2.525
2.445	2.530	2.515
2.445	2.528	2.515
2.447	2.528	2.527
2.450	2.521	2.525
2.445	2.523	2.514
2.444	2.520	2.501
2.440	2.531	2.498
2.445	2.525	2.503
2.441	2.523	2.500
2.442	2.533	2.511
2.440	2.525	2.513
2.440	2.526	2.524
2.441	2.531	2.527
2.443	2.528	2.528
2.444	2.527	2.526
2.438	2.525	2.527
2.445	2.521	2.522
2.443	2.525	2.523
2.443	2.530	2.520
2.448	2.532	2.522
2.449	2.533	2.513
2.448	2.528	2.505
2.449	2.530	2.506
2.453	2.533	2.496
2.446	2.528	2.506
2.450	2.530	2.505
2.452	2.527	2.492
2.448	2.531	2.491
2.448	2.528	2.487
2.448	2.528	2.483
2.443	2.531	2.482
2.445	2.529	2.479
2.441	2.523	2.483
2.437	2.528	2.502
2.443	2.530	2.511
2.445	2.531	2.520
2.445	2.518	2.530
2.451	2.527	2.540
2.452	2.527	2.541
2.453	2.520	2.530
2.450	2.528	2.529
2.450	2.525	2.539
2.447	2.521	2.543
2.447	2.529	2.537
2.443	2.519	2.530
2.443	2.523	2.525
2.447	2.525	2.530
2.448	2.523	2.532
2.457	2.525	2.532
2.454	2.525	2.533
2.456	2.523	2.530
2.450	2.528	2.532
2.450	2.531	2.527
2.450	2.526	2.532
2.450	2.526	2.511
2.448	2.526	2.510
2.443	2.521	2.510
2.443	2.525	2.518
2.445	2.520	2.521
2.439	2.523	2.528
2.437	2.528	2.528
2.440	2.528	2.524
2.446	2.528	2.531
2.445	2.526	2.527
2.450	2.530	2.537
2.448	2.524	2.540
2.460	2.525	2.537
2.462	2.527	2.548
2.463	2.529	2.559
2.457	2.528	2.559
2.458	2.528	2.565
2.443	2.530	2.574
2.450	2.527	2.571
2.443	2.531	2.556
2.445	2.530	2.551
2.447	2.523	2.542
2.447	2.531	2.542
2.453	2.526	2.548
2.444	2.530	2.538
2.446	2.532	2.545
2.455	2.528	2.549
2.457	2.538	2.550
2.445	2.528	2.546
2.447	2.526	2.554
2.447	2.525	2.561
2.447	2.528	2.575
2.449	2.527	2.572
2.444	2.525	2.577
2.443	2.530	2.564
2.441	2.528	2.560
2.440	2.528	2.564
2.448	2.532	2.572
2.448	2.531	2.570
2.443	2.531	2.572
2.452	2.530	2.575
2.449	2.529	2.574
2.442	2.526	2.570
2.443	2.530	2.570
2.440	2.528	2.556
2.442	2.529	2.555
2.443	2.530	2.550
2.445	2.532	2.550
2.440	2.531	2.555
2.442	2.531	2.558
2.441	2.525	2.569
2.434	2.526	2.567
2.435	2.533	2.550
2.430	2.531	2.539
2.438	2.523	2.531
2.438	2.525	2.525
2.440	2.525	2.522
2.440	2.525	2.532
2.440	2.528	2.531
2.436	2.525	2.540
2.438	2.526	2.542
2.440	2.531	2.561
2.448	2.529	2.570
2.445	2.527	2.577
2.458	2.532	2.589
2.452	2.530	2.589
2.454	2.531	2.578
2.455	2.532	2.581
2.449	2.526	2.580
2.448	2.530	2.574
2.440	2.531	2.574
2.443	2.528	2.578
2.440	2.528	2.581
2.448	2.526	2.569
2.447	2.531	2.558
2.440	2.532	2.543
2.440	2.526	2.540
2.441	2.525	2.534
2.437	2.531	2.541
2.440	2.528	2.532
2.441	2.530	2.540
2.445	2.526	2.545
2.443	2.526	2.540
2.445	2.523	2.544
2.448	2.522	2.549
2.445	2.529	2.560
2.448	2.524	2.559
2.440	2.521	2.559
2.438	2.529	2.557
2.445	2.528	2.560
2.450	2.530	2.547
2.448	2.532	2.540
2.450	2.530	2.560
2.445	2.524	2.555
2.440	2.527	2.565
2.441	2.532	2.586
2.443	2.533	2.597
2.435	2.532	2.600
2.447	2.532	2.584
2.440	2.536	2.574
2.445	2.526	2.566
2.448	2.528	2.579
2.442	2.528	2.580
2.444	2.525	2.580
2.445	2.533	2.574
2.444	2.528	2.579
2.448	2.530	2.584
2.448	2.528	2.574
2.452	2.528	2.564
2.448	2.534	2.549
2.452	2.524	2.545
2.443	2.527	2.533
2.443	2.530	2.522
2.446	2.533	2.537
2.448	2.530	2.550
2.440	2.530	2.555
2.443	2.531	2.560
2.443	2.531	2.567
2.436	2.528	2.570
2.440	2.527	2.563
2.433	2.530	2.564
2.433	2.529	2.566
2.439	2.536	2.564
2.435	2.531	2.564
2.438	2.530	2.562
2.441	2.532	2.574
2.440	2.530	2.572
2.438	2.526	2.570
2.433	2.530	2.560
2.432	2.535	2.549
2.435	2.530	2.535
2.431	2.533	2.533
2.419	2.533	2.537
2.423	2.531	2.565
2.435	2.530	2.564
2.438	2.533	2.566
2.440	2.528	2.559
2.440	2.525	2.555
2.440	2.533	2.555
2.440	2.533	2.553
2.441	2.530	2.550
2.435	2.530	2.541
2.438	2.530	2.547
2.435	2.525	2.542
2.432	2.533	2.540
2.440	2.526	2.528
2.437	2.530	2.520
2.430	2.525	2.518
2.438	2.527	2.516
2.436	2.530	2.516
2.433	2.532	2.514
2.440	2.531	2.496
2.440	2.531	2.496
2.440	2.540	2.499
2.448	2.525	2.506
2.445	2.530	2.503
2.440	2.531	2.508
2.442	2.531	2.501
2.441	2.530	2.493
2.439	2.531	2.493
2.448	2.522	2.494
2.443	2.530	2.493
2.440	2.526	2.494
2.443	2.527	2.503
2.440	2.533	2.508
2.442	2.535	2.513
2.445	2.527	2.508
2.446	2.531	2.510
2.446	2.531	2.510
2.450	2.535	2.511
2.438	2.539	2.500
2.438	2.524	2.498
2.438	2.527	2.496
2.430	2.528	2.486
2.438	2.530	2.488
2.438	2.536	2.496
2.434	2.528	2.508
2.437	2.533	2.511
2.435	2.535	2.518
2.433	2.528	2.513
2.440	2.528	2.501
2.450	2.521	2.491
2.450	2.530	2.497
2.447	2.531	2.499
2.444	2.524	2.496
2.443	2.528	2.491
2.446	2.530	2.498
2.444	2.531	2.503
2.440	2.527	2.515
2.440	2.525	2.514
2.440	2.530	2.516
2.440	2.526	2.520
2.443	2.530	2.518
2.440	2.533	2.517
2.446	2.525	2.516
2.443	2.529	2.506
2.445	2.526	2.498
2.448	2.528	2.496
2.445	2.529	2.493
2.451	2.523	2.485
2.452	2.528	2.473
2.450	2.526	2.484
2.450	2.528	2.495
2.449	2.528	2.513
2.446	2.531	2.517
2.445	2.520	2.532
2.448	2.531	2.526
2.447	2.532	2.523
2.448	2.531	2.513
2.444	2.530	2.506
2.453	2.533	2.506
2.452	2.533	2.497
2.453	2.531	2.489
2.443	2.530	2.479
2.448	2.530	2.481
2.450	2.531	2.509
2.445	2.525	2.523
2.440	2.531	2.543
2.448	2.528	2.554
2.447	2.528	2.546
2.452	2.528	2.535
2.452	2.529	2.522
2.443	2.528	2.503
2.440	2.527	2.502
2.445	2.530	2.501
2.443	2.528	2.513
2.440	2.533	2.510
2.440	2.530	2.508
2.440	2.530	2.514
2.436	2.525	2.521
2.439	2.528	2.525
2.436	2.530	2.538
2.438	2.525	2.553
2.435	2.528	2.565
2.440	2.530	2.571
2.443	2.530	2.571
2.438	2.523	2.572
2.440	2.532	2.570
2.445	2.530	2.574
2.443	2.531	2.584
2.440	2.528	2.586
2.445	2.528	2.590
2.440	2.530	2.580
2.442	2.529	2.580
2.440	2.531	2.582
2.443	2.529	2.570
2.440	2.535	2.562
2.440	2.531	2.561
2.446	2.529	2.567
2.438	2.525	2.570
2.443	2.530	2.567
2.440	2.531	2.573
2.442	2.528	2.590
2.440	2.531	2.606
2.440	2.529	2.611
2.440	2.529	2.606
2.445	2.531	2.587
2.439	2.528	2.580
2.436	2.531	2.569
2.443	2.531	2.565
2.440	2.526	2.554
2.440	2.530	2.552
2.440	2.528	2.545
2.440	2.530	2.552
2.443	2.530	2.544
2.440	2.525	2.544
2.438	2.531	2.539
2.431	2.525	2.537
2.435	2.528	2.539
2.435	2.522	2.545
2.435	2.525	2.549
2.433	2.528	2.560
2.435	2.528	2.560
2.433	2.528	2.560
2.432	2.528	2.565
2.432	2.531	2.562
2.431	2.533	2.560
2.423	2.525	2.565
2.430	2.531	2.567
2.432	2.531	2.572
2.438	2.532	2.542
2.436	2.524	2.534
2.433	2.528	2.527
2.425	2.525	2.508
2.427	2.529	2.505
2.435	2.523	2.508
2.430	2.528	2.511
2.435	2.527	2.527
2.435	2.530	2.528
2.430	2.523	2.535
2.433	2.521	2.522
2.430	2.523	2.515
2.432	2.526	2.511
2.428	2.528	2.512
2.429	2.528	2.513
2.436	2.523	2.505
2.436	2.531	2.496
2.435	2.528	2.487
2.423	2.523	2.486
2.425	2.522	2.486
2.430	2.529	2.500
2.429	2.531	2.511
2.436	2.526	2.501
2.430	2.529	2.500
2.438	2.530	2.511
2.435	2.520	2.509
2.440	2.530	2.506
2.441	2.526	2.496
2.440	2.531	2.488
2.440	2.523	2.488
2.440	2.522	2.492
2.439	2.525	2.483
2.434	2.528	2.481
2.430	2.530	2.489
2.440	2.523	2.494
2.437	2.524	2.507
2.440	2.531	2.508
2.437	2.529	2.496
2.430	2.536	2.498
2.435	2.521	2.499
2.421	2.528	2.501
2.426	2.528	2.515
2.435	2.523	2.516
2.435	2.530	2.525
2.429	2.528	2.526
2.430	2.528	2.527
2.425	2.528	2.526
2.428	2.523	2.516
2.428	2.527	2.506
2.436	2.522	2.506
2.431	2.523	2.496
2.433	2.522	2.493
2.425	2.528	2.495
2.433	2.530	2.495
2.430	2.525	2.489
2.433	2.525	2.487
2.420	2.527	2.489
2.433	2.524	2.488
2.434	2.531	2.504
2.429	2.523	2.526
2.433	2.532	2.538
2.430	2.530	2.540
2.428	2.527	2.540
2.436	2.526	2.530
2.435	2.521	2.516
2.435	2.525	2.525
2.437	2.528	2.536
2.436	2.528	2.540
2.431	2.523	2.525
2.430	2.528	2.520
2.428	2.523	2.520
2.432	2.526	2.526
2.433	2.529	2.523
2.430	2.527	2.523
2.433	2.528	2.522
2.435	2.533	2.543
2.437	2.526	2.550
2.428	2.528	2.552
2.435	2.532	2.553
2.438	2.529	2.557
2.432	2.528	2.555
2.431	2.530	2.551
2.433	2.528	2.560
2.432	2.530	2.566
2.440	2.527	2.572
2.442	2.530	2.591
2.441	2.530	2.589
2.445	2.530	2.573
2.443	2.528	2.565
2.440	2.528	2.572
2.433	2.527	2.572
2.430	2.531	2.570
2.443	2.531	2.574
2.435	2.531	2.576
2.440	2.525	2.582
2.438	2.529	2.575
2.445	2.521	2.572
2.440	2.529	2.567
2.443	2.531	2.576
2.445	2.528	2.591
2.448	2.527	2.597
2.435	2.535	2.599
2.433	2.523	2.584
2.442	2.528	2.581
2.440	2.526	2.591
2.440	2.525	2.580
2.445	2.525	2.571
2.440	2.525	2.571
2.443	2.529	2.580
2.440	2.527	2.589
2.440	2.528	2.594
2.438	2.525	2.584
2.439	2.530	2.576
2.438	2.532	2.587
2.443	2.531	2.592
2.448	2.531	2.594
2.443	2.530	2.591
2.441	2.531	2.590
2.440	2.528	2.594
2.440	2.528	2.607
2.440	2.531	2.609
2.440	2.524	2.614
2.436	2.531	2.613
2.443	2.525	2.616
2.445	2.530	2.611
2.440	2.528	2.607
2.440	2.531	2.604
2.445	2.525	2.604
2.440	2.530	2.601
2.447	2.530	2.596
2.442	2.531	2.591
2.445	2.529	2.591
2.438	2.529	2.589
2.440	2.523	2.585
2.445	2.528	2.604
2.443	2.531	2.613
2.445	2.528	2.614
2.450	2.531	2.612
2.448	2.533	2.609
2.448	2.530	2.611
2.446	2.519	2.611
2.450	2.528	2.609
2.443	2.528	2.616
2.443	2.526	2.630
2.445	2.525	2.633
2.444	2.530	2.642
2.448	2.530	2.658
2.442	2.528	2.656
2.443	2.530	2.654
2.436	2.531	2.648
2.445	2.529	2.631
2.441	2.528	2.621
2.445	2.532	2.610
2.440	2.525	2.590
2.440	2.531	2.577
2.448	2.531	2.567
2.452	2.527	2.568
2.454	2.528	2.567
2.439	2.527	2.562
2.447	2.523	2.560
2.445	2.531	2.574
2.443	2.517	2.585
2.440	2.526	2.587
2.448	2.523	2.584
2.442	2.525	2.589
2.445	2.525	2.591
2.441	2.531	2.589
2.440	2.531	2.589
2.440	2.532	2.582
2.440	2.529	2.581
2.441	2.523	2.566
2.441	2.530	2.552
2.443	2.530	2.552
2.445	2.526	2.548
2.432	2.531	2.559
2.441	2.525	2.556
2.431	2.528	2.551
2.440	2.528	2.538
2.443	2.525	2.515
2.437	2.525	2.512
2.440	2.530	2.514
2.440	2.531	2.523
2.440	2.527	2.528
2.435	2.527	2.533
2.437	2.530	2.532
2.440	2.531	2.540
2.435	2.530	2.549
2.440	2.526	2.560
2.440	2.530	2.562
2.438	2.531	2.562
2.440	2.530	2.549
2.438	2.531	2.523
2.441	2.531	2.505
2.441	2.530	2.501
2.441	2.531	2.515
2.438	2.528	2.518
2.435	2.531	2.513
2.435	2.528	2.503
2.435	2.530	2.496
2.435	2.531	2.496
2.438	2.528	2.508
2.438	2.530	2.518
2.441	2.526	2.513
2.438	2.523	2.508
2.440	2.529	2.506
2.435	2.525	2.521
2.435	2.520	2.519
2.430	2.528	2.523
2.440	2.528	2.518
2.428	2.526	2.516
2.426	2.523	2.506
2.429	2.525	2.499
2.430	2.528	2.506
2.420	2.528	2.518
2.430	2.527	2.525
2.435	2.527	2.523
2.428	2.530	2.521
2.431	2.528	2.510
2.425	2.528	2.506
2.431	2.526	2.506
2.426	2.523	2.506
2.426	2.523	2.506
2.430	2.525	2.520
2.425	2.528	2.519
2.425	2.523	2.508
2.420	2.530	2.489
2.423	2.523	2.484
2.418	2.520	2.480
2.418	2.528	2.484
2.418	2.526	2.486
2.424	2.523	2.484
2.425	2.528	2.491
2.435	2.522	2.489
2.433	2.530	2.503
2.430	2.525	2.510
2.438	2.522	2.509
2.435	2.523	2.503
2.433	2.525	2.506
2.422	2.528	2.510
2.433	2.523	2.506
2.430	2.524	2.500
2.426	2.528	2.500
2.427	2.527	2.499
2.430	2.530	2.496
2.430	2.528	2.488
2.423	2.524	2.489
2.425	2.529	2.488
2.427	2.528	2.496
2.429	2.531	2.508
2.428	2.528	2.530
2.423	2.528	2.533
2.423	2.526	2.539
2.423	2.521	2.534
2.420	2.525	2.521
2.428	2.520	2.506
2.431	2.523	2.496
2.433	2.530	2.488
2.425	2.523	2.488
2.423	2.523	2.491
2.425	2.528	2.499
2.425	2.525	2.501
2.433	2.523	2.484
2.417	2.521	2.478
2.425	2.531	2.476
2.430	2.531	2.483
2.441	2.532	2.484
2.440	2.528	2.479
2.440	2.524	2.479
2.430	2.525	2.486
2.432	2.525	2.488
2.435	2.526	2.482
2.422	2.528	2.479
2.428	2.521	2.482
2.428	2.514	2.481
2.428	2.523	2.490
2.424	2.526	2.489
2.422	2.528	2.513
2.420	2.525	2.523
2.418	2.521	2.540
2.425	2.514	2.550
2.422	2.525	2.552
2.423	2.523	2.546
2.425	2.521	2.539
2.430	2.523	2.540
2.432	2.523	2.540
2.430	2.524	2.539
2.435	2.528	2.549
2.430	2.525	2.544
2.430	2.528	2.548
2.434	2.520	2.545
2.440	2.523	2.534
2.441	2.525	2.532
2.441	2.518	2.542
2.443	2.516	2.549
2.438	2.528	2.553
2.433	2.525	2.548
2.435	2.524	2.560
2.435	2.521	2.560
2.436	2.523	2.561
2.430	2.528	2.562
2.438	2.528	2.582
2.439	2.524	2.579
2.441	2.529	2.582
2.440	2.526	2.589
2.442	2.528	2.587
2.443	2.523	2.581
2.445	2.529	2.574
2.444	2.528	2.574
2.440	2.526	2.570
2.443	2.525	2.565
2.443	2.521	2.570
2.440	2.523	2.580
2.440	2.528	2.587
2.444	2.529	2.591
2.443	2.528	2.581
2.440	2.521	2.594
2.440	2.530	2.604
2.443	2.526	2.607
2.440	2.524	2.606
2.442	2.521	2.606
2.442	2.528	2.595
2.438	2.527	2.591
2.443	2.526	2.595
2.443	2.531	2.604
2.443	2.526	2.619
2.442	2.528	2.619
2.440	2.531	2.620
2.443	2.531	2.610
2.455	2.523	2.599
2.453	2.521	2.585
2.455	2.524	2.572
2.460	2.528	2.567
2.455	2.528	2.576
2.455	2.530	2.594
2.459	2.528	2.601
2.447	2.531	2.599
2.448	2.528	2.603
2.458	2.532	2.599
2.450	2.529	2.601
2.450	2.526	2.610
2.448	2.525	2.604
2.443	2.526	2.584
2.447	2.528	2.565
2.442	2.525	2.560
2.443	2.525	2.555
2.448	2.523	2.552
2.441	2.526	2.548
2.443	2.525	2.559
2.440	2.528	2.568
2.445	2.528	2.558
2.447	2.527	2.557
2.445	2.527	2.558
2.452	2.523	2.562
2.448	2.528	2.577
2.443	2.525	2.579
2.446	2.525	2.566
2.449	2.525	2.556
2.447	2.527	2.542
2.440	2.530	2.537
2.445	2.533	2.532
2.445	2.528	2.525
2.444	2.529	2.511
2.440	2.527	2.506
2.438	2.527	2.493
2.438	2.526	2.493
2.437	2.523	2.487
2.438	2.521	2.479
2.435	2.525	2.476
2.437	2.525	2.497
2.437	2.523	2.503
2.435	2.530	2.508
2.440	2.528	2.511
2.440	2.523	2.535
2.446	2.527	2.542
2.445	2.524	2.550
2.445	2.530	2.545
2.445	2.526	2.544
2.443	2.523	2.540
2.445	2.525	2.533
2.439	2.530	2.532
2.442	2.528	2.531
2.440	2.526	2.531
2.441	2.525	2.532
2.444	2.531	2.526
2.443	2.525	2.527
2.445	2.529	2.528
2.450	2.524	2.540
2.450	2.526	2.548
2.442	2.528	2.545
2.440	2.527	2.540
2.440	2.528	2.538
2.446	2.525	2.540
2.443	2.526	2.538
2.442	2.528	2.538
2.440	2.531	2.535
2.443	2.531	2.530
2.440	2.531	2.533
2.440	2.529	2.530
2.440	2.521	2.530
2.445	2.521	2.539
2.446	2.525	2.541
2.442	2.524	2.538
2.445	2.521	2.509
2.445	2.521	2.488
2.448	2.525	2.484
2.455	2.521	2.474
2.444	2.530	2.472
2.440	2.523	2.475
2.448	2.525	2.503
2.449	2.527	2.535
2.448	2.524	2.541
2.447	2.528	2.555
2.448	2.522	2.557
2.450	2.521	2.560
2.455	2.521	2.558
2.449	2.521	2.557
2.460	2.526	2.535
2.453	2.525	2.520
2.452	2.529	2.515
2.448	2.528	2.505
2.443	2.528	2.505
2.445	2.526	2.508
2.445	2.522	2.510
2.443	2.527	2.521
2.445	2.518	2.523
2.442	2.525	2.530
2.450	2.523	2.525
2.441	2.521	2.520
2.455	2.530	2.515
2.455	2.525	2.521
2.450	2.515	2.515
2.450	2.526	2.513
2.448	2.523	2.518
2.442	2.524	2.525
2.453	2.520	2.528
2.450	2.524	2.518
2.446	2.519	2.516
2.448	2.522	2.522
2.448	2.525	2.524
2.447	2.524	2.523
2.448	2.523	2.508
2.448	2.525	2.506
2.447	2.521	2.495
2.443	2.523	2.499
2.440	2.525	2.510
2.438	2.523	2.513
2.438	2.524	2.515
2.437	2.519	2.512
2.445	2.516	2.511
2.448	2.523	2.514
2.452	2.523	2.509
2.452	2.518	2.508
2.452	2.523	2.505
2.450	2.526	2.498
2.446	2.525	2.501
2.441	2.521	2.495
2.445	2.520	2.499
2.440	2.516	2.495
2.440	2.523	2.499
2.436	2.523	2.500
2.439	2.519	2.502
2.433	2.522	2.509
2.441	2.523	2.498
2.434	2.521	2.500
2.428	2.523	2.514
2.438	2.526	2.515
2.435	2.518	2.511
2.435	2.520	2.507
2.445	2.523	2.510
2.447	2.523	2.511
2.443	2.516	2.518
2.443	2.517	2.510
2.440	2.521	2.503
2.443	2.531	2.499
2.440	2.526	2.509
2.448	2.528	2.511
2.446	2.528	2.513
2.448	2.531	2.512
2.445	2.523	2.520
2.448	2.518	2.521
2.447	2.523	2.516
2.449	2.521	2.509
2.446	2.520	2.511
2.447	2.522	2.506
2.445	2.529	2.512
2.448	2.523	2.501
2.445	2.525	2.508
2.446	2.523	2.518
2.450	2.522	2.547
2.450	2.528	2.547
2.455	2.523	2.547
2.458	2.523	2.540
2.460	2.522	2.541
2.460	2.521	2.532
2.458	2.525	2.522
2.462	2.514	2.521
2.456	2.526	2.513
2.452	2.518	2.511
2.455	2.521	2.520
2.453	2.521	2.530
2.458	2.523	2.539
2.460	2.529	2.548
2.470	2.523	2.547
2.463	2.517	2.543
2.467	2.521	2.534
2.467	2.526	2.533
2.462	2.526	2.526
2.462	2.524	2.527
2.463	2.521	2.554
2.461	2.518	2.557
2.457	2.525	2.557
2.450	2.521	2.555
2.453	2.528	2.547
2.449	2.524	2.548
2.454	2.528	2.544
2.455	2.524	2.535
2.453	2.521	2.522
2.451	2.525	2.518
2.455	2.524	2.527
2.450	2.529	2.532
2.448	2.519	2.534
2.448	2.519	2.532
2.447	2.522	2.530
2.452	2.523	2.533
2.452	2.524	2.547
2.455	2.521	2.565
2.460	2.523	2.574
2.450	2.525	2.577
2.449	2.528	2.577
2.448	2.521	2.579
2.455	2.525	2.575
2.445	2.531	2.572
2.448	2.530	2.560
2.450	2.518	2.560
2.445	2.522	2.550
2.444	2.521	2.544
2.449	2.528	2.550
2.447	2.528	2.547
2.450	2.521	2.552
2.455	2.522	2.554
2.459	2.529	2.549
2.456	2.525	2.559
2.455	2.521	2.561
2.452	2.525	2.562
2.451	2.531	2.568
2.450	2.524	2.574
2.455	2.521	2.582
2.447	2.516	2.588
2.462	2.518	2.594
2.462	2.524	2.592
2.456	2.528	2.596
2.462	2.523	2.601
2.462	2.520	2.606
2.462	2.521	2.602
2.460	2.530	2.598
2.465	2.528	2.601
2.460	2.527	2.613
2.460	2.525	2.626
2.464	2.528	2.613
2.459	2.525	2.610
2.458	2.525	2.604
2.457	2.523	2.592
2.456	2.521	2.574
2.454	2.523	2.577
2.460	2.523	2.584
2.457	2.523	2.591
2.462	2.526	2.590
2.467	2.524	2.599
2.461	2.522	2.601
2.458	2.526	2.611
2.454	2.525	2.614
2.460	2.521	2.607
2.458	2.523	2.603
2.455	2.523	2.596
2.455	2.520	2.597
2.455	2.523	2.604
2.454	2.525	2.611
2.456	2.521	2.623
2.457	2.525	2.628
2.455	2.521	2.616
2.448	2.526	2.591
2.455	2.517	2.585
2.457	2.523	2.574
2.460	2.521	2.578
2.452	2.519	2.580
2.452	2.528	2.581
2.455	2.518	2.591
2.452	2.518	2.586
2.452	2.522	2.573
2.456	2.523	2.559
2.454	2.513	2.566
2.455	2.521	2.574
2.450	2.526	2.579
2.454	2.523	2.581
2.457	2.521	2.587
2.459	2.523	2.586
2.458	2.523	2.577
2.454	2.521	2.567
2.458	2.523	2.562
2.458	2.522	2.556
2.454	2.524	2.555
2.457	2.523	2.542
2.462	2.518	2.542
2.460	2.521	2.550
2.456	2.522	2.562
2.450	2.519	2.553
2.457	2.522	2.547
2.450	2.520	2.537
2.455	2.526	2.532
2.455	2.524	2.527
2.452	2.523	2.532
2.444	2.525	2.521
2.445	2.520	2.520
2.450	2.519	2.530
2.448	2.523	2.539
2.448	2.521	2.530
2.448	2.524	2.529
2.443	2.520	2.519
2.443	2.516	2.510
2.445	2.521	2.506
2.451	2.515	2.505
2.443	2.521	2.498
2.439	2.515	2.491
2.443	2.520	2.491
2.442	2.521	2.487
2.445	2.518	2.479
2.442	2.516	2.472
2.448	2.515	2.472
2.450	2.518	2.483
2.441	2.519	2.485
2.445	2.512	2.473
2.440	2.521	2.459
2.442	2.526	2.467
2.445	2.516	2.468
2.443	2.513	2.490
2.443	2.513	2.506
2.443	2.521	2.515
2.443	2.516	2.515
2.441	2.516	2.508
2.440	2.513	2.496
2.440	2.523	2.493
2.435	2.519	2.482
2.435	2.512	2.469
2.441	2.517	2.462
2.442	2.521	2.462
2.440	2.518	2.468
2.435	2.515	2.461
2.436	2.517	2.471
2.442	2.515	2.477
2.440	2.518	2.482
2.440	2.523	2.483
2.445	2.516	2.482
2.444	2.518	2.489
2.440	2.522	2.487
2.440	2.521	2.481
2.440	2.517	2.479
2.441	2.516	2.481
2.438	2.513	2.484
2.440	2.521	2.483
2.435	2.515	2.476
2.435	2.523	2.469
2.438	2.518	2.464
2.440	2.515	2.454
2.432	2.518	2.448
2.438	2.519	2.459
2.440	2.517	2.487
2.440	2.521	2.499
2.436	2.526	2.516
2.443	2.518	2.516
2.445	2.523	2.503
2.446	2.528	2.482
2.440	2.523	2.471
2.440	2.523	2.444
2.440	2.528	2.431
2.446	2.513	2.426
2.445	2.515	2.425
2.443	2.517	2.422
2.440	2.515	2.422
2.440	2.524	2.412
2.444	2.521	2.408
2.445	2.516	2.396
2.446	2.518	2.407
2.450	2.511	2.409
2.445	2.520	2.413
2.440	2.511	2.422
2.442	2.520	2.436
2.445	2.516	2.461
2.448	2.521	2.462
2.448	2.517	2.473
2.446	2.512	2.492
2.443	2.516	2.495
2.440	2.516	2.496
2.448	2.520	2.494
2.445	2.518	2.489
2.447	2.516	2.478
2.445	2.513	2.469
2.443	2.518	2.464
2.449	2.515	2.467
2.449	2.512	2.472
2.442	2.519	2.464
2.443	2.521	2.468
2.445	2.514	2.459
2.447	2.516	2.456
2.442	2.514	2.461
2.443	2.521	2.466
2.452	2.512	2.471
2.453	2.516	2.480
2.450	2.515	2.488
2.451	2.513	2.498
2.452	2.514	2.495
2.452	2.513	2.483
2.452	2.523	2.478
2.452	2.523	2.484
2.455	2.516	2.498
2.450	2.519	2.506
2.443	2.520	2.507
2.448	2.521	2.514
2.446	2.516	2.503
2.445	2.518	2.497
2.443	2.518	2.493
2.445	2.518	2.484
2.442	2.512	2.473
2.447	2.518	2.476
2.450	2.515	2.472
2.453	2.516	2.472
2.454	2.517	2.464
2.455	2.518	2.464
2.462	2.519	2.478
2.455	2.518	2.499
2.457	2.518	2.517
2.459	2.518	2.537
2.462	2.516	2.542
2.460	2.521	2.534
2.463	2.515	2.530
2.462	2.513	2.523
2.454	2.519	2.522
2.460	2.518	2.523
2.460	2.518	2.540
2.454	2.515	2.545
2.457	2.525	2.551
2.462	2.520	2.561
2.462	2.521	2.560
2.457	2.523	2.562
2.462	2.511	2.567
2.460	2.518	2.559
2.457	2.516	2.562
2.455	2.518	2.566
2.459	2.513	2.570
2.460	2.518	2.571
2.470	2.514	2.567
2.472	2.515	2.552
2.465	2.517	2.562
2.469	2.522	2.566
2.466	2.523	2.569
2.462	2.523	2.574
2.462	2.521	2.574
2.462	2.523	2.578
2.459	2.516	2.581
2.462	2.518	2.572
2.458	2.512	2.562
2.455	2.522	2.567
2.462	2.524	2.574
2.453	2.521	2.571
2.458	2.523	2.559
2.458	2.520	2.575
2.460	2.523	2.580
2.462	2.518	2.575
2.462	2.521	2.575
2.457	2.523	2.599
2.458	2.523	2.603
2.453	2.522	2.599
2.454	2.526	2.601
2.465	2.528	2.611
2.460	2.524	2.620
2.462	2.519	2.634
2.460	2.521	2.619
2.455	2.526	2.602
2.457	2.523	2.579
2.455	2.520	2.557
2.456	2.523	2.547
2.451	2.521	2.550
2.457	2.521	2.558
2.457	2.520	2.562
2.459	2.525	2.569
2.457	2.523	2.569
2.462	2.526	2.577
2.462	2.529	2.574
2.465	2.524	2.580
2.464	2.523	2.591
2.461	2.525	2.579
2.470	2.523	2.569
2.470	2.521	2.570
2.469	2.518	2.582
2.469	2.523	2.584
2.467	2.518	2.589
2.470	2.525	2.591
2.468	2.521	2.584
2.470	2.523	2.574
2.470	2.523	2.585
2.470	2.523	2.586
2.465	2.525	2.579
2.469	2.518	2.572
2.467	2.522	2.560
2.467	2.523	2.542
2.470	2.518	2.530
2.470	2.518	2.521
2.472	2.526	2.515
2.463	2.526	2.515
2.470	2.530	2.526
2.470	2.528	2.550
2.464	2.527	2.560
2.469	2.523	2.560
2.467	2.519	2.562
2.470	2.520	2.552
2.468	2.521	2.539
2.469	2.528	2.549
2.466	2.523	2.552
2.462	2.525	2.559
2.460	2.521	2.571
2.462	2.521	2.562
2.462	2.518	2.564
2.460	2.525	2.564
2.459	2.523	2.565
2.463	2.521	2.560
2.460	2.519	2.547
2.462	2.514	2.539
2.472	2.513	2.559
2.469	2.518	2.575
2.462	2.523	2.580
2.467	2.523	2.564
2.467	2.518	2.557
2.472	2.520	2.552
2.473	2.525	2.543
2.472	2.518	2.547
2.474	2.526	2.541
2.474	2.523	2.540
2.473	2.521	2.525
2.472	2.519	2.517
2.473	2.523	2.517
2.465	2.516	2.513
2.462	2.516	2.513
2.468	2.518	2.513
2.459	2.513	2.505
2.460	2.517	2.505
2.460	2.520	2.507
2.470	2.518	2.506
2.462	2.516	2.520
2.462	2.521	2.532
2.462	2.520	2.545
2.462	2.518	2.549
2.460	2.521	2.552
2.463	2.521	2.540
2.467	2.518	2.530
2.470	2.521	2.525
2.470	2.518	2.523
2.467	2.512	2.517
2.465	2.518	2.514
2.465	2.518	2.498
2.465	2.519	2.491
2.458	2.520	2.496
2.459	2.522	2.488
2.459	2.521	2.482
2.458	2.516	2.471
2.458	2.521	2.462
2.460	2.518	2.457
2.452	2.514	2.457
2.455	2.513	2.457
2.454	2.515	2.474
2.460	2.523	2.483
2.460	2.521	2.493
2.453	2.518	2.491
2.457	2.519	2.488
2.450	2.522	2.482
2.449	2.514	2.479
2.452	2.521	2.486
2.460	2.523	2.498
2.458	2.523	2.498
2.455	2.521	2.515
2.458	2.518	2.503
2.455	2.521	2.503
2.464	2.516	2.517
2.465	2.528	2.528
2.462	2.513	2.532
2.467	2.520	2.532
2.470	2.521	2.527
2.467	2.511	2.521
2.463	2.516	2.515
2.461	2.518	2.523
2.455	2.513	2.527
2.464	2.510	2.523
2.462	2.518	2.509
2.455	2.518	2.515
2.457	2.519	2.520
2.454	2.513	2.513
2.453	2.508	2.518
2.455	2.516	2.534
2.457	2.517	2.544
2.451	2.517	2.546
2.455	2.516	2.543
2.452	2.519	2.537
2.454	2.520	2.542
2.462	2.515	2.542
2.465	2.518	2.536
2.467	2.522	2.525
2.457	2.518	2.511
2.470	2.521	2.506
2.455	2.523	2.505
2.457	2.516	2.518
2.457	2.520	2.525
2.452	2.519	2.530
2.452	2.516	2.535
2.460	2.518	2.540
2.457	2.521	2.537
2.455	2.517	2.535
2.456	2.521	2.542
2.463	2.522	2.535
2.449	2.518	2.540
2.450	2.518	2.539
2.458	2.521	2.535
2.457	2.521	2.526
2.462	2.521	2.523
2.454	2.519	2.532
2.458	2.522	2.539
2.451	2.523	2.542
2.449	2.517	2.552
2.450	2.518	2.557
2.448	2.523	2.566
2.445	2.518	2.585
2.450	2.515	2.584
2.445	2.521	2.580
2.447	2.515	2.575
2.453	2.519	2.568
2.451	2.522	2.554
2.453	2.522	2.545
2.458	2.511	2.552
2.459	2.518	2.545
2.460	2.516	2.538
2.460	2.524	2.535
2.467	2.515	2.541
2.464	2.518	2.540
2.458	2.515	2.533
2.461	2.520	2.525
2.458	2.523	2.534
2.458	2.523	2.544
2.455	2.517	2.554
2.452	2.521	2.569
2.452	2.517	2.577
2.452	2.521	2.574
2.450	2.518	2.560
2.455	2.526	2.555
2.450	2.522	2.562
2.453	2.520	2.560
2.453	2.529	2.557
2.452	2.528	2.557
2.457	2.526	2.567
2.454	2.526	2.570
2.462	2.526	2.575
2.455	2.524	2.572
2.460	2.521	2.562
2.455	2.525	2.564
2.449	2.521	2.559
2.452	2.525	2.567
2.452	2.518	2.577
2.454	2.525	2.584
2.457	2.531	2.584
2.450	2.521	2.565
2.449	2.523	2.567
2.458	2.524	2.580
2.454	2.524	2.586
2.454	2.527	2.584
2.460	2.522	2.594
2.462	2.520	2.613
2.450	2.523	2.618
2.450	2.524	2.606
2.447	2.529	2.602
2.452	2.527	2.593
2.448	2.525	2.577
2.447	2.525	2.575
2.448	2.525	2.571
2.452	2.525	2.560
2.452	2.529	2.557
2.450	2.529	2.547
2.455	2.519	2.551
2.460	2.528	2.560
2.462	2.531	2.566
2.470	2.530	2.575
2.468	2.525	2.581
2.462	2.526	2.576
2.462	2.517	2.573
2.462	2.523	2.570
2.460	2.526	2.577
2.457	2.523	2.570
2.455	2.525	2.562
2.460	2.532	2.559
2.450	2.527	2.569
2.456	2.531	2.564
2.447	2.523	2.558
2.457	2.518	2.559
2.459	2.526	2.567
2.460	2.528	2.577
2.457	2.525	2.584
2.457	2.526	2.595
2.454	2.525	2.589
2.455	2.526	2.592
2.452	2.528	2.593
2.444	2.519	2.594
2.450	2.525	2.581
2.450	2.528	2.570
2.442	2.526	2.556
2.442	2.521	2.562
2.445	2.521	2.567
2.443	2.521	2.562
2.450	2.522	2.549
2.446	2.523	2.542
2.438	2.520	2.550
2.445	2.523	2.553
2.447	2.521	2.559
2.450	2.526	2.579
2.445	2.526	2.575
2.452	2.522	2.572
2.450	2.530	2.570
2.440	2.530	2.558
2.439	2.525	2.555
2.445	2.525	2.540
2.440	2.528	2.555
2.443	2.519	2.554
2.443	2.531	2.565
2.445	2.530	2.553
2.442	2.523	2.542
2.445	2.523	2.539
2.436	2.527	2.548
2.437	2.522	2.555
2.439	2.525	2.555
2.443	2.523	2.560
2.448	2.521	2.552
2.440	2.518	2.557
2.440	2.520	2.567
2.438	2.528	2.577
2.438	2.524	2.585
2.440	2.525	2.580
2.440	2.523	2.575
2.440	2.524	2.565
2.443	2.525	2.555
2.440	2.517	2.557
2.448	2.518	2.545
2.443	2.523	2.550
2.440	2.521	2.552
2.440	2.520	2.563
2.441	2.521	2.562
2.442	2.527	2.560
2.442	2.521	2.544
2.440	2.521	2.537
2.440	2.523	2.535
2.440	2.525	2.542
2.440	2.522	2.536
2.440	2.528	2.543
2.440	2.528	2.559
2.441	2.527	2.564
2.442	2.524	2.564
2.436	2.523	2.551
2.445	2.528	2.547
2.445	2.518	2.532
2.443	2.528	2.529
2.445	2.528	2.540
2.440	2.525	2.539
2.445	2.524	2.542
2.443	2.527	2.540
2.440	2.526	2.522
2.442	2.523	2.510
2.448	2.523	2.515
2.440	2.518	2.515
2.445	2.531	2.512
2.444	2.523	2.513
2.440	2.520	2.508
2.440	2.521	2.498
2.441	2.520	2.496
2.444	2.523	2.504
2.439	2.521	2.506
2.440	2.525	2.510
2.444	2.526	2.508
2.445	2.527	2.515
2.440	2.531	2.501
2.443	2.523	2.503
2.443	2.524	2.503
2.448	2.518	2.504
2.450	2.520	2.518
2.455	2.522	2.523
2.455	2.521	2.519
2.450	2.520	2.512
2.445	2.521	2.506
2.450	2.526	2.511
2.453	2.521	2.512
2.455	2.519	2.506
2.453	2.520	2.492
2.445	2.523	2.498
2.447	2.519	2.496
2.450	2.528	2.489
2.450	2.523	2.495
2.448	2.525	2.502
2.452	2.523	2.498
2.455	2.522	2.502
2.448	2.516	2.515
2.446	2.528	2.516
2.444	2.530	2.506
2.442	2.514	2.506
2.442	2.523	2.500
2.442	2.520	2.513
2.445	2.521	2.508
2.450	2.516	2.503
2.443	2.523	2.486
2.445	2.515	2.484
2.441	2.516	2.476
2.442	2.520	2.484
2.439	2.525	2.491
2.443	2.524	2.488
2.440	2.521	2.498
2.445	2.517	2.520
2.448	2.515	2.532
2.442	2.525	2.537
2.443	2.521	2.538
2.443	2.521	2.530
2.448	2.518	2.522
2.449	2.525	2.519
2.453	2.525	2.523
2.448	2.521	2.529
2.450	2.521	2.533
2.452	2.519	2.545
2.452	2.522	2.557
2.450	2.518	2.559
2.450	2.523	2.575
2.449	2.520	2.574
2.444	2.518	2.567
2.443	2.521	2.547
2.443	2.518	2.534
2.440	2.520	2.534
2.445	2.523	2.535
2.440	2.521	2.547
2.450	2.522	2.542
2.445	2.520	2.540
2.447	2.526	2.548
2.436	2.520	2.542
2.440	2.523	2.540
2.440	2.521	2.539
2.440	2.521	2.537
2.440	2.518	2.532
2.445	2.523	2.530
2.452	2.525	2.527
2.448	2.521	2.522
2.443	2.515	2.523
2.437	2.528	2.522
2.438	2.528	2.528
2.440	2.524	2.520
2.438	2.523	2.515
2.440	2.523	2.521
2.440	2.526	2.518
2.438	2.528	2.522
2.443	2.525	2.522
2.441	2.521	2.524
2.439	2.522	2.533
2.445	2.523	2.540
2.442	2.523	2.537
2.443	2.521	2.532
2.438	2.523	2.521
2.438	2.519	2.517
2.440	2.524	2.530
2.442	2.528	2.530
2.437	2.528	2.525
2.433	2.521	2.515
2.432	2.521	2.518
2.438	2.518	2.517
2.443	2.523	2.528
2.440	2.525	2.531
2.440	2.528	2.535
2.448	2.523	2.540
2.446	2.531	2.542
2.446	2.527	2.549
2.446	2.522	2.544
2.450	2.517	2.541
2.442	2.523	2.528
2.440	2.522	2.525
2.442	2.523	2.522
2.440	2.520	2.530
2.448	2.525	2.546
2.449	2.527	2.560
2.452	2.528	2.582
2.450	2.523	2.579
2.455	2.523	2.560
2.452	2.531	2.560
2.460	2.523	2.549
2.452	2.523	2.550
2.453	2.525	2.547
2.455	2.523	2.545
2.446	2.525	2.540
2.445	2.525	2.544
2.441	2.526	2.546
2.448	2.527	2.557
2.443	2.523	2.562
2.447	2.523	2.562
2.442	2.528	2.560
2.448	2.526	2.554
2.450	2.531	2.537
2.451	2.521	2.542
2.443	2.523	2.545
2.441	2.521	2.557
2.440	2.526	2.559
2.440	2.522	2.562
2.445	2.528	2.561
2.440	2.525	2.570
2.440	2.521	2.581
2.445	2.522	2.579
2.448	2.525	2.584
2.447	2.523	2.575
2.442	2.526	2.572
2.440	2.522	2.572
2.445	2.525	2.574
2.443	2.533	2.591
2.445	2.528	2.606
2.447	2.530	2.611
2.448	2.525	2.617
2.441	2.529	2.626
2.439	2.525	2.623
2.439	2.528	2.611
2.443	2.534	2.606
2.440	2.525	2.606
2.442	2.529	2.607
2.445	2.531	2.621
2.440	2.532	2.612
2.443	2.525	2.602
2.441	2.528	2.586
2.443	2.528	2.571
2.432	2.531	2.580
2.435	2.531	2.582
2.443	2.532	2.565
2.443	2.528	2.564
2.445	2.521	2.561
2.440	2.525	2.560
2.444	2.519	2.562
2.436	2.522	2.572
2.442	2.528	2.575
2.439	2.528	2.580
2.438	2.523	2.588
2.435	2.523	2.591
2.435	2.528	2.601
2.435	2.524	2.606
2.443	2.526	2.593
2.443	2.525	2.580
2.450	2.531	2.572
2.451	2.531	2.562
2.441	2.532	2.557
2.450	2.525	2.557
2.445	2.523	2.556
2.443	2.523	2.560
2.445	2.531	2.559
2.440	2.525	2.550
2.450	2.528	2.547
2.448	2.525	2.540
2.441	2.524	2.532
2.437	2.530	2.537
2.440	2.530	2.537
2.440	2.530	2.538
2.443	2.530	2.532
2.445	2.529	2.518
2.440	2.526	2.506
2.441	2.530	2.520
2.443	2.530	2.531
2.452	2.526	2.527
2.447	2.527	2.518
2.447	2.525	2.515
2.450	2.523	2.516
2.445	2.528	2.524
2.443	2.523	2.532
2.447	2.526	2.542
2.453	2.525	2.555
2.453	2.529	2.543
2.449	2.521	2.552
2.448	2.526	2.559
2.452	2.528	2.555
2.453	2.530	2.567
2.454	2.530	2.574
2.455	2.528	2.570
2.445	2.525	2.567
2.440	2.523	2.560
2.445	2.531	2.560
2.446	2.528	2.567
2.442	2.530	2.564
2.448	2.530	2.559
2.443	2.530	2.560
2.453	2.523	2.565
2.447	2.531	2.558
2.440	2.526	2.549
2.445	2.526	2.540
2.441	2.523	2.541
2.444	2.523	2.542
2.443	2.525	2.545
2.443	2.526	2.545
2.440	2.524	2.539
2.440	2.526	2.532
2.440	2.527	2.532
2.444	2.526	2.541
2.447	2.531	2.547
2.445	2.525	2.542
2.439	2.521	2.545
2.439	2.528	2.533
2.442	2.528	2.521
2.452	2.523	2.506
2.447	2.525	2.495
2.450	2.517	2.501
2.452	2.523	2.501
2.448	2.526	2.505
2.446	2.527	2.511
2.445	2.521	2.506
2.450	2.523	2.494
2.452	2.522	2.484
2.444	2.521	2.482
2.445	2.528	2.493
2.435	2.526	2.506
2.440	2.516	2.522
2.440	2.518	2.537
2.448	2.525	2.540
2.444	2.523	2.533
2.444	2.523	2.523
2.440	2.519	2.523
2.440	2.517	2.520
2.440	2.519	2.523
2.442	2.525	2.539
2.440	2.525	2.545
2.443	2.521	2.537
2.445	2.521	2.551
2.449	2.525	2.542
2.441	2.521	2.540
2.444	2.521	2.535
2.447	2.523	2.522
2.445	2.519	2.511
2.440	2.523	2.496
2.440	2.521	2.490
2.440	2.519	2.487
2.440	2.521	2.483
2.438	2.522	2.481
2.443	2.518	2.479
2.442	2.513	2.474
2.443	2.516	2.481
2.435	2.514	2.486
2.440	2.523	2.483
2.443	2.521	2.477
2.445	2.518	2.462
2.441	2.523	2.459
2.442	2.517	2.462
2.440	2.524	2.466
2.436	2.518	2.474
2.438	2.521	2.470
2.437	2.519	2.469
2.440	2.521	2.463
2.440	2.521	2.460
2.440	2.518	2.469
2.438	2.521	2.481
2.440	2.526	2.498
2.444	2.523	2.487
2.448	2.524	2.488
2.450	2.520	2.491
2.450	2.515	2.500
2.448	2.523	2.503
2.447	2.521	2.511
2.450	2.523	2.513
2.448	2.518	2.508
2.446	2.520	2.506
2.448	2.520	2.518
2.445	2.521	2.522
2.445	2.518	2.537
2.452	2.515	2.541
2.447	2.510	2.537
2.450	2.525	2.538
2.452	2.527	2.530
2.448	2.521	2.517
2.449	2.520	2.504
2.447	2.523	2.496
2.452	2.521	2.487
2.452	2.521	2.496
2.443	2.518	2.505
2.450	2.518	2.519
2.454	2.521	2.545
2.458	2.521	2.552
2.455	2.519	2.552
2.452	2.519	2.555
2.454	2.518	2.545
2.450	2.518	2.539
2.450	2.516	2.544
2.455	2.523	2.555
2.452	2.517	2.560
2.457	2.521	2.565
2.453	2.520	2.570
2.455	2.521	2.569
2.458	2.522	2.567
2.458	2.525	2.564
2.455	2.522	2.567
2.450	2.524	2.574
2.460	2.521	2.574
2.462	2.526	2.577
2.452	2.523	2.561
2.457	2.523	2.560
2.450	2.521	2.544
2.447	2.521	2.547
2.458	2.521	2.542
2.455	2.520	2.538
2.452	2.526	2.549
2.455	2.523	2.560
2.454	2.528	2.567
2.457	2.523	2.569
2.455	2.523	2.567
2.448	2.519	2.562
2.447	2.521	2.560
2.449	2.526	2.570
2.450	2.526	2.587
2.448	2.523	2.594
2.443	2.526	2.599
2.445	2.523	2.598
2.454	2.526	2.604
2.445	2.525	2.580
2.457	2.529	2.570
2.450	2.529	2.559
2.451	2.525	2.553
2.455	2.522	2.562
2.460	2.525	2.560
2.455	2.528	2.560
2.460	2.523	2.575
2.456	2.525	2.574
2.453	2.525	2.571
2.450	2.521	2.569
2.457	2.528	2.568
2.464	2.523	2.570
2.460	2.521	2.574
2.458	2.525	2.570
2.455	2.522	2.570
2.455	2.527	2.572
2.464	2.525	2.567
2.467	2.521	2.567
2.467	2.523	2.572
2.466	2.528	2.584
2.465	2.528	2.594
2.462	2.523	2.594
2.465	2.528	2.591
2.467	2.521	2.585
2.465	2.531	2.577
2.469	2.524	2.579
2.467	2.525	2.560
2.470	2.525	2.551
2.473	2.528	2.541
2.471	2.529	2.540
2.472	2.524	2.555
2.464	2.528	2.564
2.467	2.523	2.581
2.465	2.523	2.582
2.464	2.526	2.585
2.465	2.523	2.575
2.465	2.526	2.572
2.469	2.522	2.561
2.472	2.531	2.573
2.465	2.526	2.572
2.462	2.528	2.574
2.460	2.525	2.567
2.462	2.523	2.567
2.462	2.531	2.558
2.467	2.525	2.562
2.467	2.528	2.550
2.464	2.531	2.547
2.468	2.523	2.562
2.467	2.525	2.565
2.462	2.526	2.562
2.462	2.529	2.553
2.467	2.524	2.557
2.457	2.521	2.555
2.455	2.525	2.547
2.458	2.530	2.542
2.448	2.523	2.545
2.449	2.521	2.559
2.455	2.520	2.573
2.452	2.529	2.567
2.448	2.525	2.565
2.455	2.529	2.571
2.455	2.524	2.585
2.457	2.527	2.578
2.467	2.521	2.587
2.466	2.525	2.577
2.463	2.523	2.577
2.457	2.526	2.570
2.455	2.523	2.566
2.450	2.526	2.560
2.454	2.522	2.553
2.452	2.527	2.545
2.448	2.523	2.532
2.453	2.521	2.521
2.452	2.525	2.530
2.455	2.521	2.543
2.458	2.529	2.542
2.448	2.522	2.530
2.453	2.520	2.526
2.450	2.525	2.532
2.445	2.528	2.539
2.445	2.521	2.539
2.448	2.523	2.547
2.443	2.525	2.542
2.450	2.521	2.532
2.447	2.523	2.523
2.455	2.521	2.532
2.458	2.527	2.530
2.457	2.522	2.523
2.453	2.515	2.521
2.452	2.523	2.523
2.452	2.522	2.520
2.449	2.530	2.522
2.460	2.523	2.516
2.454	2.523	2.508
2.460	2.517	2.510
2.453	2.525	2.515
2.460	2.523	2.521
2.458	2.519	2.518
2.455	2.522	2.509
2.457	2.526	2.501
2.452	2.509	2.504
2.453	2.513	2.504
2.443	2.522	2.515
2.450	2.521	2.520
2.448	2.530	2.516
2.450	2.522	2.512
2.453	2.525	2.510
2.450	2.525	2.523
2.454	2.522	2.537
2.455	2.525	2.538
2.461	2.528	2.532
2.462	2.523	2.532
2.465	2.518	2.542
2.465	2.523	2.554
2.469	2.521	2.560
2.473	2.524	2.551
2.472	2.528	2.532
2.479	2.526	2.515
2.474	2.520	2.525
2.475	2.522	2.537
2.466	2.520	2.546
2.467	2.525	2.550
2.470	2.526	2.539
2.463	2.525	2.527
2.462	2.525	2.530
2.458	2.528	2.524
2.457	2.526	2.522
2.464	2.521	2.516
2.459	2.521	2.518
2.460	2.525	2.530
2.462	2.523	2.541
2.463	2.528	2.552
2.462	2.521	2.553
2.465	2.528	2.548
2.460	2.522	2.542
2.462	2.522	2.547
2.462	2.523	2.560
2.466	2.528	2.556
2.464	2.531	2.552
2.465	2.523	2.550
2.468	2.523	2.538
2.464	2.523	2.525
2.467	2.521	2.519
2.470	2.521	2.523
2.465	2.528	2.515
2.467	2.521	2.510
2.470	2.523	2.492
2.461	2.527	2.478
2.470	2.529	2.482
2.467	2.523	2.492
2.462	2.526	2.491
2.467	2.525	2.496
2.467	2.528	2.502
2.465	2.522	2.512
2.458	2.525	2.520
2.459	2.525	2.520
2.458	2.523	2.541
2.455	2.526	2.550
2.462	2.522	2.562
2.457	2.519	2.559
2.449	2.528	2.569
2.457	2.523	2.575
2.460	2.521	2.565
2.461	2.521	2.552
2.456	2.528	2.535
2.459	2.523	2.523
2.459	2.522	2.524
2.450	2.520	2.520
2.452	2.521	2.513
2.458	2.526	2.518
2.457	2.520	2.523
2.460	2.526	2.534
2.460	2.519	2.539
2.465	2.518	2.543
2.461	2.526	2.550
2.467	2.521	2.554
2.465	2.518	2.564
2.462	2.523	2.564
2.460	2.529	2.575
2.457	2.530	2.574
2.455	2.526	2.590
2.453	2.527	2.585
2.454	2.526	2.584
2.460	2.524	2.584
2.452	2.521	2.589
2.448	2.519	2.584
2.452	2.523	2.589
2.450	2.528	2.599
2.450	2.521	2.593
2.450	2.526	2.593
2.443	2.523	2.585
2.445	2.522	2.578
2.449	2.522	2.567
2.440	2.523	2.554
2.455	2.519	2.531
2.450	2.525	2.522
2.452	2.523	2.525
2.452	2.522	2.531
2.457	2.530	2.530
2.448	2.521	2.532
2.450	2.528	2.518
2.449	2.527	2.522
2.455	2.522	2.522
2.454	2.517	2.532
2.448	2.522	2.557
2.445	2.528	2.574
2.449	2.526	2.576
2.445	2.520	2.580
2.448	2.526	2.574
2.449	2.521	2.571
2.450	2.523	2.572
2.445	2.526	2.560
2.455	2.519	2.549
2.447	2.521	2.540
2.445	2.523	2.523
2.444	2.524	2.525
2.450	2.525	2.523
2.450	2.525	2.525
2.449	2.529	2.530
2.446	2.527	2.516
2.452	2.518	2.509
2.448	2.520	2.496
2.454	2.520	2.488
2.452	2.513	2.495
2.454	2.521	2.502
2.450	2.523	2.510
2.448	2.523	2.515
2.450	2.523	2.521
2.452	2.523	2.531
2.450	2.519	2.532
2.445	2.520	2.537
2.443	2.520	2.521
2.448	2.523	2.511
2.443	2.521	2.505
2.450	2.525	2.508
2.453	2.521	2.510
2.451	2.516	2.500
2.460	2.520	2.495
2.457	2.519	2.493
2.450	2.523	2.488
2.445	2.524	2.474
2.445	2.518	2.470
2.449	2.523	2.479
2.447	2.521	2.483
2.443	2.521	2.496
2.448	2.521	2.505
2.448	2.523	2.512
2.445	2.522	2.524
2.450	2.526	2.541
2.453	2.525	2.545
2.462	2.523	2.540
2.459	2.525	2.550
2.454	2.526	2.552
2.450	2.528	2.551
2.457	2.518	2.545
2.445	2.523	2.525
2.450	2.523	2.511
2.445	2.525	2.510
2.447	2.521	2.507
2.443	2.522	2.520
2.447	2.528	2.527
2.437	2.521	2.535
2.438	2.521	2.533
2.434	2.522	2.535
2.443	2.521	2.530
2.438	2.526	2.522
2.440	2.518	2.508
2.440	2.521	2.498
2.438	2.523	2.496
2.436	2.517	2.489
2.440	2.526	2.506
2.441	2.523	2.518
2.441	2.526	2.521
2.441	2.528	2.519
2.438	2.523	2.516
2.437	2.526	2.509
2.443	2.523	2.511
2.438	2.525	2.505
2.437	2.526	2.500
2.436	2.530	2.488
2.440	2.525	2.495
2.443	2.523	2.498
2.445	2.521	2.502
2.447	2.521	2.508
2.442	2.527	2.511
2.437	2.522	2.513
2.440	2.531	2.503
2.437	2.521	2.496
2.440	2.528	2.491
2.445	2.524	2.500
2.446	2.526	2.497
2.447	2.523	2.503
2.448	2.526	2.510
2.445	2.522	2.530
2.450	2.524	2.541
2.450	2.525	2.540
2.447	2.521	2.540
2.445	2.526	2.547
2.443	2.530	2.567
2.451	2.523	2.562
2.453	2.528	2.564
2.448	2.530	2.564
2.448	2.524	2.554
2.447	2.526	2.537
2.445	2.528	2.530
2.444	2.531	2.525
2.450	2.523	2.517
2.445	2.528	2.522
2.445	2.528	2.531
2.448	2.525	2.540
2.450	2.525	2.539
2.450	2.521	2.545
2.450	2.520	2.548
2.454	2.526	2.549
2.450	2.532	2.559
2.452	2.520	2.555
2.452	2.531	2.547
2.451	2.529	2.540
2.450	2.525	2.541
2.451	2.526	2.538
2.452	2.521	2.525
2.446	2.523	2.530
2.444	2.528	2.532
2.444	2.528	2.524
2.453	2.528	2.515
2.452	2.530	2.516
2.446	2.525	2.518
2.448	2.526	2.513
2.440	2.527	2.508
2.442	2.525	2.518
2.440	2.520	2.520
2.450	2.523	2.531
2.444	2.526	2.530
2.445	2.528	2.528
2.452	2.527	2.530
2.453	2.525	2.534
2.453	2.525	2.532
2.460	2.523	2.537
2.462	2.526	2.537
2.460	2.524	2.545
2.462	2.523	2.559
2.455	2.528	2.574
2.455	2.532	2.571
2.462	2.522	2.565
2.463	2.531	2.544
2.462	2.523	2.535
2.467	2.525	2.537
2.462	2.522	2.538
2.460	2.525	2.536
2.457	2.531	2.541
2.459	2.529	2.538
2.469	2.528	2.537
2.465	2.524	2.533
2.463	2.526	2.533
2.464	2.521	2.524
2.467	2.528	2.528
2.459	2.520	2.527
2.460	2.528	2.513
2.460	2.525	2.506
2.459	2.525	2.488
2.460	2.523	2.484
2.457	2.528	2.498
2.460	2.523	2.520
2.458	2.526	2.534
2.462	2.525	2.558
2.459	2.524	2.574
2.458	2.529	2.572
2.462	2.528	2.580
2.460	2.518	2.581
2.465	2.528	2.571
2.462	2.521	2.569
2.464	2.528	2.568
2.457	2.527	2.557
2.460	2.528	2.550
2.464	2.525	2.540
2.470	2.531	2.525
2.452	2.528	2.531
2.462	2.528	2.540
2.465	2.526	2.540
2.457	2.522	2.548
2.458	2.525	2.550
2.462	2.525	2.546
2.460	2.530	2.552
2.462	2.525	2.559
2.465	2.526	2.569
2.457	2.522	2.562
2.457	2.521	2.559
2.455	2.530	2.562
2.465	2.529	2.568
2.457	2.529	2.575
2.453	2.529	2.579
2.452	2.517	2.585
2.452	2.530	2.552
2.453	2.526	2.536
2.454	2.521	2.533
2.458	2.523	2.511
2.453	2.521	2.503
2.453	2.527	2.501
2.446	2.526	2.511
2.444	2.523	2.527
2.443	2.526	2.528
2.438	2.524	2.523
2.440	2.529	2.523
2.448	2.526	2.540
2.452	2.533	2.547
2.452	2.528	2.547
2.458	2.525	2.535
2.460	2.524	2.540
2.452	2.525	2.540
2.446	2.521	2.550
2.442	2.524	2.543
2.446	2.523	2.542
2.442	2.523	2.552
2.442	2.524	2.551
2.443	2.530	2.550
2.440	2.524	2.555
2.443	2.531	2.562
2.444	2.530	2.551
2.443	2.530	2.540
2.452	2.530	2.548
2.446	2.528	2.543
2.452	2.531	2.544
2.447	2.523	2.540
2.452	2.526	2.538
2.455	2.531	2.535
2.443	2.528	2.537
2.440	2.531	2.515
2.439	2.529	2.503
2.443	2.523	2.506
2.443	2.523	2.509
2.437	2.528	2.511
2.443	2.528	2.515
2.440	2.523	2.515
2.433	2.523	2.522
2.433	2.522	2.520
2.430	2.521	2.516
2.428	2.527	2.522
2.438	2.525	2.540
2.443	2.529	2.562
2.447	2.523	2.561
2.445	2.530	2.574
2.440	2.525	2.562
2.445	2.523	2.560
2.443	2.523	2.557
2.441	2.525	2.545
2.439	2.523	2.539
2.440	2.530	2.522
2.440	2.523	2.520
2.440	2.528	2.523
2.443	2.526	2.504
2.447	2.528	2.505
2.445	2.525	2.514
2.449	2.524	2.523
2.440	2.526	2.522
2.437	2.521	2.537
2.445	2.528	2.545
2.445	2.528	2.544
2.455	2.525	2.535
2.452	2.526	2.523
2.454	2.521	2.514
2.455	2.528	2.518
2.465	2.529	2.513
2.462	2.530	2.522
2.451	2.529	2.524
2.457	2.530	2.525
2.455	2.522	2.526
2.460	2.531	2.523
2.457	2.531	2.508
2.453	2.525	2.497
2.448	2.523	2.488
2.448	2.525	2.489
2.451	2.523	2.495
2.445	2.531	2.510
2.450	2.523	2.523
2.450	2.526	2.536
2.450	2.526	2.538
2.450	2.525	2.540
2.455	2.522	2.538
2.453	2.523	2.532
2.453	2.530	2.528
2.447	2.521	2.518
2.441	2.520	2.509
2.440	2.525	2.503
2.443	2.521	2.513
2.445	2.525	2.523
2.447	2.525	2.522
2.440	2.522	2.530
2.450	2.526	2.543
2.443	2.522	2.543
2.445	2.523	2.534
2.446	2.533	2.537
2.442	2.521	2.522
2.445	2.520	2.524
2.442	2.522	2.532
2.444	2.531	2.538
2.452	2.530	2.528
2.448	2.523	2.522
2.450	2.527	2.511
2.455	2.531	2.520
2.448	2.524	2.527
2.450	2.526	2.530
2.450	2.531	2.521
2.448	2.523	2.521
2.450	2.530	2.530
2.447	2.526	2.533
2.448	2.527	2.530
2.455	2.531	2.526
2.450	2.525	2.521
2.448	2.521	2.512
2.460	2.526	2.511
2.458	2.530	2.505
2.455	2.524	2.500
2.452	2.530	2.508
2.453	2.523	2.515
2.454	2.530	2.515
2.446	2.523	2.520
2.447	2.521	2.519
2.448	2.525	2.521
2.450	2.530	2.523
2.460	2.522	2.516
2.455	2.526	2.502
2.450	2.525	2.504
2.449	2.528	2.513
2.448	2.528	2.525
2.445	2.522	2.529
2.443	2.519	2.528
2.444	2.520	2.522
2.452	2.525	2.525
2.453	2.528	2.535
2.450	2.525	2.530
2.454	2.523	2.522
2.455	2.529	2.515
2.447	2.521	2.518
2.448	2.525	2.519
2.454	2.529	2.529
2.447	2.527	2.527
2.457	2.525	2.528
2.457	2.525	2.540
2.452	2.528	2.550
2.447	2.529	2.533
2.448	2.521	2.527
2.452	2.525	2.532
2.458	2.523	2.518
2.457	2.530	2.518
2.452	2.525	2.522
2.450	2.526	2.541
2.450	2.521	2.548
2.450	2.525	2.557
2.452	2.526	2.559
2.450	2.524	2.554
2.455	2.525	2.557
2.465	2.528	2.562
2.465	2.526	2.560
2.464	2.531	2.554
2.467	2.528	2.552
2.465	2.525	2.535
2.469	2.529	2.550
2.464	2.531	2.542
2.470	2.523	2.538
2.472	2.529	2.542
2.471	2.524	2.537
2.459	2.519	2.536
2.464	2.528	2.541
2.462	2.525	2.535
2.458	2.528	2.530
2.467	2.530	2.533
2.469	2.533	2.547
2.460	2.528	2.553
2.462	2.528	2.567
2.468	2.528	2.575
2.467	2.525	2.580
2.464	2.531	2.581
2.464	2.521	2.579
2.462	2.529	2.577
2.459	2.530	2.571
2.459	2.532	2.562
2.460	2.530	2.564
2.457	2.525	2.567
2.453	2.524	2.559
2.456	2.530	2.555
2.450	2.531	2.547
2.457	2.530	2.545
2.458	2.530	2.540
2.460	2.526	2.544
2.462	2.524	2.543
2.465	2.523	2.547
2.465	2.523	2.560
2.471	2.528	2.575
2.461	2.528	2.596
2.463	2.530	2.610
2.467	2.528	2.591
2.465	2.531	2.582
2.465	2.528	2.584
2.462	2.525	2.585
2.457	2.530	2.575
2.450	2.528	2.571
2.457	2.531	2.552
2.455	2.531	2.559
2.449	2.522	2.550
2.462	2.528	2.540
2.458	2.531	2.552
2.467	2.529	2.557
2.464	2.523	2.555
2.470	2.523	2.549
2.467	2.524	2.560
2.465	2.527	2.564
2.471	2.525	2.559
2.467	2.526	2.538
2.469	2.531	2.532
2.470	2.524	2.530
2.474	2.524	2.541
2.474	2.523	2.540
2.470	2.528	2.539
2.469	2.525	2.532
2.465	2.531	2.530
2.469	2.523	2.537
2.465	2.525	2.550
2.470	2.525	2.567
2.468	2.528	2.570
2.467	2.531	2.569
2.462	2.525	2.549
2.460	2.531	2.548
2.462	2.519	2.547
2.460	2.528	2.560
2.457	2.530	2.562
2.459	2.528	2.561
2.458	2.530	2.567
2.457	2.533	2.570
2.462	2.530	2.582
2.462	2.527	2.585
2.460	2.523	2.587
2.469	2.528	2.601
2.465	2.526	2.609
2.465	2.532	2.611
2.459	2.530	2.590
2.462	2.525	2.562
2.458	2.531	2.567
2.450	2.528	2.562
2.455	2.530	2.569
2.457	2.531	2.567
2.457	2.531	2.572
2.453	2.533	2.565
2.452	2.528	2.556
2.454	2.528	2.540
2.457	2.527	2.533
2.460	2.520	2.550
2.460	2.519	2.552
2.449	2.526	2.562
2.452	2.526	2.569
2.450	2.533	2.582
2.450	2.530	2.587
2.447	2.528	2.582
2.453	2.527	2.574
2.455	2.521	2.574
2.458	2.531	2.571
2.460	2.528	2.567
2.457	2.530	2.562
2.447	2.530	2.562
2.445	2.530	2.549
2.453	2.529	2.542
2.458	2.522	2.540
2.448	2.526	2.526
2.448	2.521	2.515
2.445	2.531	2.515
2.448	2.525	2.515
2.455	2.520	2.513
2.445	2.522	2.513
2.445	2.521	2.512
2.446	2.530	2.509
2.447	2.527	2.506
2.441	2.526	2.501
2.455	2.522	2.494
2.450	2.528	2.506
2.450	2.531	2.517
2.452	2.529	2.520
2.448	2.531	2.535
2.453	2.525	2.545
2.450	2.522	2.539
2.449	2.523	2.527
2.448	2.528	2.515
2.457	2.521	2.516
2.450	2.526	2.513
2.454	2.526	2.509
2.457	2.523	2.507
2.455	2.522	2.503
2.454	2.531	2.504
2.452	2.521	2.503
2.455	2.520	2.508
2.453	2.524	2.513
2.452	2.524	2.520
2.448	2.523	2.514
2.452	2.531	2.508
2.460	2.526	2.489
2.457	2.521	2.478
2.457	2.529	2.469
2.454	2.528	2.485
2.460	2.525	2.487
2.450	2.528	2.494
2.452	2.528	2.491
2.453	2.518	2.486
2.445	2.523	2.479
2.450	2.525	2.486
2.452	2.530	2.488
2.448	2.521	2.487
2.460	2.528	2.483
2.455	2.526	2.481
2.462	2.528	2.505
2.462	2.522	2.505
2.455	2.530	2.511
2.467	2.521	2.515
2.459	2.525	2.518
2.458	2.526	2.518
2.460	2.523	2.514
2.465	2.530	2.510
2.460	2.526	2.515
2.459	2.528	2.518
2.457	2.521	2.515
2.458	2.518	2.507
2.455	2.522	2.501
2.460	2.532	2.503
2.455	2.525	2.496
2.455	2.525	2.488
2.456	2.525	2.484
2.450	2.523	2.474
2.445	2.522	2.469
2.450	2.525	2.462
2.455	2.524	2.469
2.452	2.523	2.484
2.445	2.521	2.488
2.445	2.531	2.499
2.448	2.524	2.496
2.453	2.523	2.486
2.452	2.528	2.487
2.452	2.526	2.486
2.460	2.518	2.489
2.458	2.518	2.483
2.454	2.518	2.490
2.461	2.521	2.491
2.452	2.521	2.499
2.455	2.523	2.504
2.455	2.528	2.496
2.461	2.520	2.492
2.457	2.524	2.503
2.455	2.523	2.517
2.461	2.519	2.528
2.457	2.518	2.530
2.458	2.522	2.522
2.450	2.520	2.533
2.450	2.525	2.536
2.451	2.529	2.524
2.450	2.526	2.514
2.448	2.521	2.520
2.453	2.530	2.525
2.455	2.531	2.522
2.462	2.519	2.522
2.462	2.520	2.515
2.465	2.521	2.506
2.470	2.524	2.493
2.468	2.528	2.488
2.462	2.527	2.486
2.467	2.523	2.497
2.457	2.522	2.494
2.465	2.525	2.493
2.459	2.518	2.491
2.464	2.525	2.486
2.465	2.526	2.492
2.462	2.525	2.506
2.460	2.523	2.511
2.460	2.527	2.503
2.465	2.531	2.501
2.457	2.531	2.498
2.465	2.527	2.505
2.462	2.525	2.504
2.460	2.526	2.501
2.460	2.527	2.511
2.462	2.528	2.523
2.458	2.525	2.532
2.454	2.529	2.543
2.455	2.522	2.540
2.457	2.524	2.548
2.460	2.522	2.555
2.464	2.522	2.544
2.462	2.523	2.547
2.467	2.531	2.559
2.470	2.521	2.566
2.468	2.525	2.570
2.462	2.525	2.559
2.462	2.521	2.540
2.460	2.525	2.534
2.465	2.529	2.543
2.460	2.525	2.552
2.462	2.526	2.570
2.465	2.524	2.592
2.457	2.528	2.604
2.460	2.524	2.612
2.460	2.523	2.617
2.461	2.530	2.616
2.462	2.530	2.604
2.458	2.524	2.591
2.453	2.526	2.589
2.457	2.528	2.584
2.452	2.528	2.582
2.452	2.524	2.578
2.458	2.524	2.567
2.449	2.523	2.554
2.449	2.528	2.559
2.448	2.527	2.561
2.453	2.525	2.560
2.452	2.527	2.557
2.457	2.526	2.565
2.457	2.525	2.574
2.462	2.521	2.583
2.463	2.530	2.591
2.457	2.528	2.592
2.456	2.530	2.594
2.457	2.532	2.598
2.450	2.526	2.601
2.452	2.525	2.588
2.447	2.527	2.598
2.445	2.533	2.597
2.450	2.528	2.597
2.443	2.525	2.594
2.450	2.527	2.564
2.447	2.533	2.552
2.455	2.531	2.538
2.446	2.528	2.541
2.443	2.529	2.542
2.440	2.532	2.557
2.438	2.535	2.560
2.446	2.531	2.560
2.449	2.522	2.561
2.447	2.534	2.562
2.455	2.535	2.577
2.457	2.533	2.592
2.463	2.529	2.610
2.458	2.533	2.607
2.457	2.533	2.589
2.460	2.526	2.575
2.457	2.524	2.559
2.448	2.521	2.550
2.447	2.523	2.555
2.450	2.522	2.572
2.445	2.530	2.575
2.445	2.528	2.570
2.452	2.531	2.557
2.452	2.529	2.552
2.455	2.530	2.550
2.452	2.531	2.546
2.448	2.530	2.538
2.441	2.525	2.525
2.442	2.525	2.532
2.445	2.532	2.541
2.441	2.536	2.547
2.445	2.528	2.552
2.450	2.530	2.556
2.445	2.528	2.562
2.445	2.528	2.559
2.446	2.530	2.560
2.445	2.535	2.562
2.450	2.530	2.569
2.453	2.531	2.562
2.446	2.531	2.550
2.445	2.529	2.540
2.442	2.527	2.537
2.440	2.529	2.538
2.443	2.528	2.548
2.441	2.523	2.558
2.442	2.525	2.562
2.445	2.532	2.562
2.440	2.531	2.552
2.441	2.528	2.549
2.440	2.530	2.540
2.445	2.533	2.538
2.448	2.533	2.533
2.450	2.531	2.525
2.445	2.531	2.522
2.441	2.526	2.534
2.443	2.523	2.537
2.443	2.528	2.530
2.448	2.523	2.527
2.444	2.530	2.535
2.452	2.535	2.550
2.448	2.531	2.555
2.448	2.525	2.553
2.454	2.533	2.542
2.445	2.531	2.540
2.443	2.530	2.540
2.448	2.526	2.554
2.448	2.531	2.559
2.448	2.530	2.545
2.439	2.528	2.540
2.440	2.523	2.540
2.440	2.531	2.539
2.443	2.531	2.551
2.442	2.535	2.545
2.440	2.535	2.553
2.440	2.530	2.550
2.443	2.530	2.557
2.443	2.531	2.565
2.440	2.531	2.570
2.440	2.530	2.561
2.440	2.523	2.562
2.443	2.530	2.567
2.448	2.531	2.562
2.452	2.531	2.572
2.455	2.530	2.579
2.450	2.528	2.591
2.443	2.525	2.606
2.448	2.526	2.606
2.440	2.528	2.611
2.443	2.528	2.574
2.446	2.527	2.565
2.445	2.535	2.560
2.445	2.534	2.556
2.443	2.527	2.550
2.443	2.531	2.558
2.442	2.533	2.582
2.440	2.525	2.588
2.443	2.527	2.574
2.448	2.528	2.569
2.453	2.530	2.580
2.447	2.528	2.595
2.445	2.530	2.604
2.453	2.527	2.609
2.456	2.532	2.607
2.452	2.528	2.601
2.452	2.533	2.599
2.452	2.536	2.593
2.453	2.531	2.606
2.455	2.536	2.612
2.441	2.531	2.610
2.443	2.531	2.597
2.440	2.531	2.593
2.441	2.525	2.586
2.448	2.525	2.593
2.445	2.529	2.599
2.445	2.533	2.604
2.448	2.529	2.599
2.448	2.525	2.587
2.445	2.535	2.576
2.455	2.531	2.574
2.442	2.531	2.574
2.443	2.531	2.585
2.450	2.533	2.584
2.454	2.538	2.576
2.457	2.531	2.576
2.463	2.535	2.577
2.458	2.541	2.575
2.459	2.534	2.572
2.458	2.536	2.564
2.465	2.529	2.562
2.468	2.532	2.574
2.460	2.540	2.592
2.459	2.536	2.593
2.457	2.532	2.590
2.457	2.535	2.611
2.455	2.532	2.623
2.460	2.538	2.634
2.457	2.537	2.619
2.457	2.538	2.616
2.455	2.541	2.626
2.457	2.540	2.631
2.458	2.540	2.633
2.452	2.528	2.631
2.455	2.537	2.631
2.453	2.535	2.625
2.454	2.533	2.626
2.454	2.540	2.626
2.452	2.531	2.610
2.455	2.540	2.601
2.454	2.538	2.596
2.457	2.540	2.602
2.457	2.537	2.601
2.452	2.540	2.602
2.455	2.544	2.615
2.457	2.534	2.612
2.456	2.542	2.606
2.460	2.538	2.595
2.460	2.535	2.603
2.467	2.540	2.609
2.464	2.535	2.607
2.460	2.533	2.621
2.460	2.532	2.632
2.462	2.535	2.624
2.470	2.541	2.611
2.464	2.536	2.604
2.465	2.537	2.597
2.460	2.540	2.600
2.457	2.540	2.593
2.470	2.538	2.594
2.462	2.538	2.580
2.459	2.538	2.568
2.458	2.535	2.552
2.459	2.541	2.560
2.462	2.538	2.567
2.465	2.538	2.574
2.465	2.532	2.589
2.472	2.538	2.602
2.464	2.538	2.611
2.467	2.541	2.623
2.470	2.534	2.627
2.470	2.532	2.633
2.469	2.535	2.625
2.466	2.536	2.604
2.452	2.545	2.587
2.465	2.542	2.576
2.464	2.538	2.560
2.462	2.535	2.568
2.462	2.536	2.577
2.462	2.539	2.588
2.457	2.531	2.587
2.461	2.526	2.584
2.460	2.536	2.594
2.457	2.540	2.594
2.462	2.533	2.594
2.457	2.532	2.593
2.458	2.536	2.613
2.465	2.534	2.617
2.464	2.533	2.612
2.463	2.535	2.621
2.454	2.541	2.638
2.464	2.539	2.646
2.462	2.535	2.653
2.460	2.537	2.671
2.457	2.535	2.678
2.462	2.533	2.673
2.457	2.532	2.665
2.467	2.535	2.642
2.458	2.532	2.630
2.459	2.534	2.623
2.458	2.536	2.631
2.460	2.539	2.633
2.455	2.535	2.638
2.460	2.535	2.639
2.459	2.534	2.646
2.462	2.537	2.646
2.464	2.535	2.641
2.467	2.538	2.628
2.463	2.541	2.628
2.458	2.538	2.622
2.455	2.536	2.615
2.455	2.537	2.624
2.455	2.540	2.623
2.457	2.530	2.611
2.455	2.535	2.588
2.450	2.536	2.574
2.451	2.526	2.572
2.447	2.531	2.570
2.447	2.535	2.582
2.452	2.530	2.587
2.455	2.533	2.576
2.457	2.535	2.577
2.457	2.530	2.572
2.467	2.532	2.565
2.472	2.535	2.564
2.467	2.532	2.549
2.464	2.538	2.536
2.455	2.532	2.524
2.455	2.538	2.515
2.452	2.529	2.504
2.460	2.535	2.495
2.460	2.533	2.489
2.447	2.532	2.493
2.457	2.531	2.501
2.460	2.530	2.501
2.458	2.530	2.496
2.456	2.533	2.495
2.457	2.530	2.498
2.458	2.525	2.495
2.457	2.528	2.494
2.455	2.531	2.496
2.457	2.533	2.489
2.455	2.535	2.484
2.448	2.533	2.481
2.449	2.536	2.468
2.448	2.525	2.463
2.454	2.533	2.466
2.450	2.530	2.464
2.452	2.529	2.469
2.447	2.531	2.481
2.450	2.530	2.486
2.455	2.533	2.492
2.453	2.525	2.498
2.460	2.531	2.513
2.456	2.528	2.535
2.460	2.531	2.529
2.458	2.528	2.531
2.457	2.533	2.535
2.455	2.532	2.528
2.450	2.531	2.528
2.448	2.529	2.530
2.447	2.531	2.527
2.453	2.530	2.535
2.449	2.531	2.536
2.447	2.532	2.532
2.446	2.531	2.530
2.447	2.528	2.523
2.450	2.525	2.512
2.447	2.530	2.504
2.450	2.528	2.503
2.446	2.536	2.515
2.452	2.530	2.515
2.452	2.527	2.528
2.445	2.532	2.523
2.446	2.530	2.525
2.442	2.531	2.526
2.443	2.534	2.525
2.443	2.527	2.525
2.450	2.529	2.523
2.448	2.536	2.523
2.440	2.528	2.522
2.444	2.531	2.525
2.450	2.531	2.535
2.448	2.528	2.540
2.445	2.530	2.547
2.449	2.531	2.545
2.448	2.528	2.537
2.445	2.528	2.532
2.440	2.525	2.522
2.441	2.529	2.525
2.440	2.521	2.528
2.443	2.526	2.536
2.443	2.527	2.554
2.445	2.530	2.550
2.445	2.530	2.557
2.443	2.522	2.552
2.443	2.528	2.545
2.444	2.531	2.545
2.440	2.526	2.542
2.443	2.530	2.531
2.440	2.531	2.523
2.438	2.531	2.518
2.440	2.520	2.517
2.442	2.528	2.526
2.441	2.533	2.529
2.443	2.526	2.532
2.441	2.530	2.532
2.440	2.528	2.526
2.443	2.530	2.519
2.443	2.530	2.529
2.441	2.526	2.527
2.440	2.525	2.526
2.439	2.528	2.531
2.445	2.527	2.525
2.445	2.534	2.522
2.448	2.531	2.516
2.451	2.528	2.519
2.447	2.530	2.523
2.443	2.531	2.520
2.453	2.533	2.525
2.450	2.531	2.522
2.452	2.534	2.524
2.445	2.535	2.532
2.443	2.523	2.535
2.446	2.531	2.530
2.439	2.527	2.534
2.441	2.534	2.535
2.448	2.528	2.542
2.446	2.531	2.552
2.440	2.528	2.564
2.440	2.527	2.597
2.445	2.528	2.606
2.450	2.530	2.591
2.444	2.525	2.580
2.442	2.522	2.572
2.444	2.530	2.572
2.440	2.531	2.572
2.446	2.532	2.555
2.445	2.533	2.550
2.454	2.527	2.551
2.452	2.533	2.559
2.450	2.531	2.570
2.450	2.533	2.569
2.455	2.523	2.571
2.457	2.532	2.569
2.457	2.527	2.559
2.453	2.532	2.558
2.452	2.531	2.557
2.452	2.531	2.557
2.443	2.520	2.542
2.443	2.529	2.536
2.448	2.526	2.523
2.444	2.525	2.508
2.447	2.531	2.509
2.442	2.523	2.518
2.444	2.533	2.513
2.442	2.528	2.520
2.450	2.530	2.526
2.447	2.527	2.530
2.450	2.533	2.527
2.455	2.531	2.532
2.450	2.531	2.544
2.447	2.533	2.543
2.443	2.528	2.547
2.446	2.530	2.547
2.443	2.530	2.550
2.445	2.530	2.557
2.443	2.533	2.554
2.445	2.530	2.554
2.445	2.530	2.564
2.448	2.535	2.572
2.449	2.521	2.564
2.450	2.531	2.557
2.453	2.526	2.547
2.447	2.527	2.540
2.452	2.527	2.535
2.445	2.530	2.530
2.445	2.531	2.523
2.448	2.520	2.525
2.447	2.523	2.543
2.449	2.528	2.555
2.448	2.533	2.551
2.450	2.525	2.537
2.454	2.530	2.532
2.449	2.528	2.532
2.445	2.526	2.537
2.452	2.528	2.536
2.448	2.526	2.538
2.450	2.528	2.530
2.449	2.533	2.530
2.453	2.523	2.531
2.455	2.526	2.548
2.454	2.524	2.559
2.454	2.531	2.567
2.452	2.531	2.572
2.457	2.525	2.575
2.460	2.533	2.565
2.450	2.532	2.566
2.454	2.527	2.562
2.457	2.528	2.560
2.458	2.531	2.555
2.457	2.533	2.549
2.443	2.532	2.540
2.455	2.532	2.536
2.450	2.526	2.527
2.451	2.528	2.515
2.445	2.528	2.513
2.448	2.528	2.522
2.452	2.528	2.525
2.456	2.521	2.538
2.459	2.524	2.540
2.452	2.525	2.542
2.455	2.528	2.540
2.457	2.525	2.533
2.455	2.521	2.523
2.450	2.527	2.501
2.447	2.530	2.501
2.440	2.521	2.493
2.443	2.531	2.483
2.440	2.531	2.488
2.438	2.528	2.495
2.447	2.522	2.505
2.443	2.531	2.507
2.453	2.524	2.497
2.443	2.521	2.486
2.440	2.525	2.468
2.440	2.528	2.469
2.443	2.526	2.471
2.435	2.525	2.477
2.440	2.525	2.493
2.438	2.525	2.499
2.435	2.528	2.498
2.433	2.525	2.491
2.440	2.528	2.491
2.435	2.526	2.486
2.438	2.521	2.476
2.433	2.520	2.469
2.435	2.521	2.480
2.443	2.528	2.479
2.440	2.531	2.492
2.440	2.526	2.498
2.443	2.526	2.503
2.445	2.527	2.503
2.444	2.528	2.508
2.447	2.525	2.510
2.448	2.525	2.506
2.440	2.529	2.496
2.447	2.527	2.488
2.458	2.519	2.483
2.450	2.523	2.487
2.448	2.523	2.488
2.444	2.524	2.480
2.438	2.523	2.476
2.440	2.523	2.488
2.443	2.519	2.499
2.448	2.526	2.508
2.443	2.531	2.511
2.445	2.526	2.515
2.445	2.523	2.512
2.445	2.520	2.506
2.442	2.527	2.493
2.436	2.525	2.495
2.438	2.525	2.503
2.438	2.526	2.511
2.440	2.520	2.515
2.437	2.530	2.521
2.440	2.520	2.527
2.433	2.525	2.547
2.434	2.530	2.536
2.435	2.528	2.526
2.430	2.524	2.515
2.433	2.517	2.501
2.441	2.527	2.493
2.438	2.526	2.481
2.435	2.520	2.489
2.425	2.525	2.493
2.428	2.531	2.506
2.435	2.521	2.520
2.439	2.531	2.531
2.437	2.526	2.527
2.440	2.530	2.540
2.440	2.528	2.542
2.432	2.527	2.542
2.440	2.528	2.549
2.432	2.527	2.552
2.437	2.530	2.543
2.441	2.526	2.540
2.440	2.530	2.532
2.435	2.519	2.523
2.443	2.523	2.517
2.443	2.526	2.509
2.438	2.523	2.508
2.438	2.525	2.506
2.437	2.521	2.501
2.440	2.523	2.506
2.445	2.531	2.507
2.440	2.520	2.501
2.437	2.525	2.488
2.443	2.528	2.491
2.440	2.527	2.493
2.433	2.521	2.486
2.432	2.525	2.488
2.425	2.525	2.487
2.428	2.524	2.496
2.433	2.525	2.508
2.441	2.523	2.520
2.438	2.519	2.535
2.442	2.522	2.552
2.448	2.521	2.562
2.445	2.522	2.557
2.445	2.525	2.559
2.448	2.528	2.542
2.450	2.521	2.542
2.441	2.523	2.537
2.444	2.525	2.545
2.442	2.524	2.540
2.448	2.523	2.528
2.450	2.528	2.522
2.463	2.521	2.528
2.462	2.521	2.529
2.465	2.522	2.521
2.460	2.526	2.519
2.461	2.528	2.521
2.457	2.523	2.518
2.453	2.521	2.523
2.457	2.523	2.535
2.453	2.518	2.539
2.460	2.523	2.541
2.452	2.523	2.540
2.452	2.525	2.547
2.450	2.528	2.551
2.448	2.531	2.553
2.453	2.527	2.545
2.453	2.517	2.540
2.457	2.522	2.537
2.450	2.520	2.524
2.457	2.526	2.513
2.455	2.521	2.506
2.450	2.528	2.521
2.447	2.528	2.525
2.443	2.523	2.528
2.444	2.523	2.532
2.438	2.528	2.540
2.440	2.527	2.539
2.442	2.528	2.544
2.455	2.530	2.557
2.455	2.526	2.560
2.448	2.528	2.564
2.454	2.525	2.578
2.455	2.531	2.572
2.450	2.523	2.574
2.455	2.526	2.582
2.454	2.528	2.588
2.452	2.525	2.575
2.455	2.526	2.574
2.459	2.522	2.566
2.448	2.521	2.550
2.453	2.521	2.552
2.451	2.523	2.549
2.448	2.521	2.555
2.440	2.523	2.556
2.448	2.526	2.547
2.450	2.530	2.539
2.447	2.523	2.542
2.443	2.522	2.547
2.443	2.521	2.538
2.447	2.526	2.545
2.441	2.521	2.547
2.449	2.531	2.552
2.449	2.523	2.572
2.453	2.519	2.569
2.450	2.524	2.564
2.452	2.521	2.561
2.447	2.524	2.552
2.448	2.520	2.560
2.442	2.525	2.564
2.451	2.529	2.560
2.442	2.522	2.546
2.446	2.530	2.542
2.448	2.523	2.532
2.447	2.523	2.530
2.445	2.527	2.527
2.445	2.521	2.532
2.460	2.521	2.527
2.452	2.523	2.527
2.453	2.526	2.540
2.451	2.528	2.539
2.451	2.528	2.550
2.457	2.530	2.561
2.457	2.527	2.577
2.460	2.523	2.604
2.462	2.523	2.614
2.458	2.522	2.610
2.455	2.524	2.602
2.451	2.524	2.589
2.451	2.523	2.577
2.456	2.525	2.555
2.455	2.528	2.550
2.458	2.525	2.549
2.455	2.523	2.557
2.462	2.525	2.560
2.455	2.528	2.565
2.450	2.527	2.569
2.458	2.523	2.584
2.457	2.528	2.587
2.450	2.524	2.591
2.454	2.526	2.582
2.457	2.526	2.579
2.450	2.530	2.577
2.452	2.531	2.562
2.452	2.521	2.562
2.452	2.528	2.560
2.450	2.527	2.548
2.446	2.531	2.556
2.442	2.526	2.565
2.445	2.531	2.560
2.444	2.526	2.564
2.442	2.529	2.563
2.445	2.525	2.559
2.445	2.531	2.562
2.445	2.525	2.560
2.446	2.527	2.558
2.442	2.523	2.557
2.443	2.523	2.558
2.443	2.525	2.569
2.440	2.529	2.582
2.447	2.523	2.582
2.438	2.523	2.585
2.440	2.526	2.584
2.435	2.525	2.581
2.436	2.521	2.579
2.437	2.520	2.580
2.429	2.525	2.585
2.432	2.524	2.587
2.425	2.522	2.574
2.425	2.526	2.566
2.433	2.523	2.556
2.433	2.520	2.557
2.437	2.525	2.560
2.441	2.522	2.564
2.441	2.521	2.565
2.437	2.526	2.565
2.443	2.526	2.551
2.445	2.523	2.533
2.442	2.531	2.517
2.445	2.528	2.515
2.440	2.521	2.522
2.440	2.525	2.526
2.448	2.525	2.518
2.439	2.523	2.516
2.439	2.526	2.511
2.445	2.524	2.518
2.440	2.527	2.518
2.440	2.527	2.535
2.440	2.524	2.540
2.440	2.520	2.550
2.440	2.528	2.560
2.441	2.528	2.552
2.439	2.530	2.550
2.436	2.520	2.558
2.443	2.525	2.556
2.440	2.520	2.545
2.445	2.523	2.533
2.442	2.523	2.530
2.440	2.524	2.507
2.440	2.524	2.508
2.440	2.522	2.515
2.440	2.523	2.528
2.437	2.528	2.535
2.438	2.522	2.528
2.440	2.521	2.523
2.450	2.521	2.506
2.445	2.523	2.511
2.445	2.522	2.515
2.448	2.525	2.521
2.441	2.525	2.538
2.439	2.521	2.542
2.439	2.525	2.557
2.443	2.523	2.568
2.440	2.523	2.564
2.435	2.526	2.567
2.443	2.525	2.572
2.435	2.523	2.591
2.435	2.521	2.598
2.436	2.528	2.607
2.434	2.525	2.596
2.431	2.523	2.582
2.435	2.523	2.578
2.440	2.521	2.567
2.432	2.528	2.560
2.435	2.526	2.553
2.438	2.524	2.557
2.443	2.523	2.562
2.446	2.521	2.564
2.441	2.521	2.570
2.434	2.523	2.580
2.433	2.523	2.582
2.430	2.523	2.580
2.433	2.525	2.587
2.425	2.525	2.599
2.440	2.523	2.598
2.440	2.531	2.594
2.441	2.525	2.597
2.437	2.523	2.587
2.434	2.523	2.573
2.435	2.531	2.552
2.438	2.525	2.555
2.435	2.531	2.559
2.430	2.525	2.560
2.435	2.525	2.550
2.438	2.525	2.539
2.438	2.521	2.530
2.434	2.523	2.534
2.434	2.520	2.540
2.430	2.522	2.537
2.428	2.523	2.523
2.423	2.521	2.510
2.425	2.523	2.515
2.428	2.527	2.521
2.428	2.528	2.511
2.433	2.525	2.508
2.430	2.523	2.511
2.429	2.525	2.512
2.436	2.522	2.511
2.440	2.521	2.516
2.440	2.529	2.513
2.440	2.524	2.513
2.438	2.528	2.511
2.440	2.518	2.512
2.438	2.521	2.510
2.439	2.523	2.508
2.437	2.525	2.495
2.438	2.525	2.483
2.437	2.523	2.496
2.433	2.528	2.510
2.435	2.528	2.518
2.440	2.523	2.509
2.430	2.523	2.515
2.435	2.521	2.517
2.437	2.524	2.515
2.433	2.522	2.511
2.445	2.526	2.505
2.438	2.521	2.503
2.445	2.531	2.501
2.449	2.526	2.513
2.445	2.526	2.522
2.445	2.522	2.538
2.448	2.528	2.540
2.448	2.531	2.541
2.440	2.521	2.540
2.440	2.526	2.562
2.438	2.527	2.571
2.435	2.524	2.574
2.438	2.523	2.581
2.440	2.526	2.577
2.448	2.523	2.574
2.443	2.523	2.564
2.444	2.520	2.560
2.444	2.528	2.559
2.441	2.528	2.560
2.443	2.525	2.567
2.440	2.525	2.567
2.435	2.531	2.560
2.441	2.527	2.548
2.440	2.523	2.539
2.440	2.523	2.523
2.444	2.524	2.518
2.441	2.525	2.503
2.450	2.523	2.498
2.447	2.531	2.506
2.443	2.530	2.516
2.440	2.525	2.522
2.445	2.531	2.538
2.445	2.523	2.528
2.443	2.522	2.517
2.441	2.527	2.508
2.440	2.531	2.513
2.441	2.521	2.518
2.445	2.525	2.532
2.452	2.525	2.547
2.457	2.530	2.553
2.454	2.530	2.540
2.453	2.528	2.531
2.460	2.526	2.521
2.449	2.528	2.515
2.457	2.530	2.508
2.450	2.524	2.503
2.452	2.531	2.505
2.455	2.522	2.506
2.442	2.530	2.508
2.444	2.530	2.517
2.441	2.525	2.515
2.445	2.530	2.522
2.447	2.525	2.523
2.447	2.531	2.525
2.450	2.531	2.523
2.450	2.530	2.521
2.458	2.530	2.527
2.452	2.522	2.552
2.459	2.528	2.558
2.457	2.525	2.560
2.453	2.528	2.560
2.451	2.525	2.558
2.450	2.525	2.542
2.450	2.528	2.533
2.447	2.528	2.534
2.445	2.528	2.541
2.445	2.530	2.530
2.440	2.530	2.532
2.443	2.527	2.539
2.443	2.523	2.540
2.439	2.528	2.545
2.442	2.525	2.542
2.450	2.527	2.540
2.445	2.523	2.540
2.448	2.526	2.548
2.450	2.530	2.549
2.450	2.528	2.537
2.453	2.528	2.552
2.450	2.528	2.561
2.447	2.526	2.560
2.445	2.525	2.550
2.445	2.528	2.547
2.448	2.523	2.530
2.457	2.525	2.524
2.454	2.525	2.522
2.454	2.521	2.510
2.462	2.518	2.501
2.453	2.521	2.506
2.451	2.528	2.515
2.446	2.526	2.516
2.452	2.524	2.520
2.455	2.526	2.522
2.454	2.531	2.529
2.457	2.529	2.525
2.457	2.530	2.530
2.460	2.537	2.540
2.450	2.528	2.530
2.454	2.528	2.534
2.458	2.525	2.547
2.462	2.529	2.549
2.462	2.535	2.547
2.464	2.526	2.539
2.464	2.525	2.537
2.464	2.528	2.552
2.460	2.525	2.552
2.460	2.531	2.537
2.456	2.532	2.528
2.459	2.524	2.508
2.458	2.519	2.506
2.462	2.526	2.505
2.458	2.531	2.508
2.462	2.528	2.521
2.462	2.530	2.535
2.467	2.528	2.550
2.465	2.530	2.557
2.470	2.530	2.559
2.467	2.531	2.551
2.467	2.530	2.547
2.464	2.522	2.537
2.455	2.529	2.548
2.460	2.523	2.552
2.458	2.528	2.563
2.457	2.530	2.553
2.462	2.531	2.555
2.457	2.523	2.547
2.463	2.525	2.532
2.460	2.528	2.527
2.462	2.530	2.527
2.463	2.523	2.516
2.460	2.525	2.506
2.457	2.526	2.520
2.458	2.528	2.540
2.450	2.527	2.547
2.452	2.530	2.543
2.450	2.529	2.540
2.450	2.528	2.539
2.448	2.530	2.544
2.450	2.528	2.550
2.447	2.526	2.535
2.443	2.530	2.537
2.440	2.527	2.530
2.435	2.531	2.535
2.440	2.533	2.552
2.440	2.525	2.545
2.445	2.522	2.540
2.445	2.528	2.534
2.451	2.528	2.523
2.445	2.525	2.528
2.450	2.530	2.535
2.445	2.530	2.547
2.443	2.531	2.551
2.439	2.521	2.559
2.444	2.525	2.570
2.448	2.528	2.564
2.455	2.526	2.567
2.455	2.527	2.570
2.450	2.527	2.580
2.448	2.525	2.577
2.452	2.532	2.575
2.453	2.533	2.576
2.452	2.531	2.574
2.450	2.523	2.574
2.449	2.530	2.563
2.450	2.529	2.552
2.450	2.528	2.545
2.452	2.530	2.540
2.455	2.525	2.542
2.450	2.528	2.542
2.457	2.527	2.536
2.455	2.530	2.546
2.458	2.525	2.552
2.457	2.525	2.552
2.455	2.528	2.559
2.453	2.528	2.567
2.450	2.530	2.568
2.445	2.523	2.562
2.450	2.530	2.550
2.457	2.525	2.545
2.452	2.524	2.539
2.458	2.524	2.544
2.457	2.531	2.545
2.455	2.527	2.550
2.453	2.528	2.544
2.455	2.530	2.540
2.450	2.527	2.546
2.459	2.528	2.549
2.460	2.528	2.558
2.455	2.528	2.545
2.457	2.531	2.534
2.455	2.531	2.534
2.453	2.530	2.528
2.455	2.529	2.538
2.454	2.527	2.544
2.450	2.530	2.547
2.453	2.535	2.552
2.454	2.530	2.547
2.458	2.531	2.558
2.454	2.531	2.572
2.455	2.528	2.591
2.459	2.527	2.602
2.458	2.529	2.597
2.455	2.523	2.591
2.452	2.526	2.589
2.452	2.528	2.588
2.455	2.531	2.585
2.452	2.528	2.591
2.465	2.531	2.599
2.462	2.530	2.589
2.462	2.528	2.590
2.455	2.530	2.580
2.452	2.528	2.577
2.454	2.532	2.574
2.460	2.532	2.562
2.455	2.533	2.538
2.454	2.536	2.532
2.449	2.531	2.533
2.448	2.525	2.527
2.450	2.523	2.532
2.448	2.527	2.530
2.449	2.525	2.523
2.445	2.525	2.522
2.450	2.530	2.526
2.450	2.523	2.523
2.448	2.527	2.515
2.447	2.523	2.518
2.445	2.525	2.518
2.450	2.531	2.525
2.450	2.528	2.545
2.443	2.532	2.550
2.443	2.534	2.550
2.440	2.530	2.552
2.438	2.530	2.562
2.439	2.530	2.558
2.442	2.523	2.548
2.445	2.523	2.540
2.445	2.532	2.539
2.448	2.528	2.544
2.441	2.528	2.548
2.439	2.525	2.540
2.442	2.529	2.542
2.440	2.529	2.542
2.440	2.522	2.538
2.439	2.525	2.532
2.440	2.523	2.532
2.440	2.525	2.515
2.440	2.526	2.511
2.442	2.528	2.513
2.449	2.535	2.505
2.452	2.525	2.513
2.448	2.525	2.517
2.448	2.528	2.525
2.441	2.525	2.535
2.440	2.531	2.545
2.445	2.525	2.542
2.447	2.530	2.543
2.447	2.523	2.548
2.445	2.528	2.541
2.445	2.532	2.548
2.443	2.531	2.554
2.440	2.530	2.567
2.443	2.527	2.574
2.440	2.530	2.582
2.440	2.525	2.582
2.450	2.536	2.577
2.450	2.525	2.572
2.454	2.530	2.584
2.452	2.535	2.568
2.448	2.526	2.566
2.442	2.528	2.560
2.444	2.525	2.554
2.445	2.522	2.560
2.447	2.530	2.556
2.449	2.528	2.562
2.448	2.528	2.569
2.445	2.530	2.568
2.443	2.535	2.557
2.443	2.532	2.550
2.441	2.528	2.543
2.439	2.526	2.545
2.443	2.530	2.542
2.440	2.533	2.545
2.440	2.533	2.542
2.444	2.532	2.552
2.440	2.530	2.549
2.443	2.537	2.552
2.440	2.530	2.560
2.439	2.528	2.565
2.436	2.531	2.579
2.440	2.531	2.587
2.440	2.533	2.574
2.440	2.525	2.569
2.440	2.525	2.557
2.433	2.528	2.542
2.436	2.530	2.537
2.433	2.528	2.540
2.435	2.531	2.548
2.426	2.523	2.555
2.435	2.531	2.562
2.427	2.528	2.564
2.438	2.531	2.569
2.432	2.526	2.572
2.435	2.530	2.577
2.428	2.524	2.573
2.428	2.525	2.567
2.436	2.530	2.574
2.437	2.524	2.587
2.445	2.530	2.591
2.439	2.531	2.591
2.440	2.528	2.586
2.440	2.525	2.581
2.443	2.530	2.582
2.447	2.532	2.587
2.441	2.527	2.597
2.437	2.531	2.602
2.444	2.530	2.606
2.443	2.532	2.607
2.445	2.530	2.590
2.443	2.531	2.580
2.447	2.532	2.566
2.450	2.523	2.565
2.443	2.530	2.567
2.448	2.531	2.567
2.453	2.528	2.567
2.438	2.535	2.564
2.450	2.533	2.577
2.452	2.524	2.580
2.450	2.527	2.594
2.450	2.528	2.598
2.448	2.531	2.599
2.448	2.531	2.599
2.445	2.528	2.596
2.446	2.530	2.601
2.440	2.532	2.604
2.445	2.533	2.619
2.447	2.535	2.609
2.447	2.530	2.595
2.450	2.529	2.595
2.448	2.530	2.589
2.449	2.532	2.592
2.448	2.530	2.574
2.451	2.528	2.571
2.447	2.530	2.571
2.452	2.525	2.584
2.453	2.531	2.585
2.455	2.535	2.587
2.455	2.535	2.594
2.455	2.528	2.599
2.460	2.531	2.607
2.450	2.529	2.616
2.447	2.525	2.623
2.444	2.523	2.635
2.450	2.530	2.638
2.445	2.528	2.628
2.450	2.528	2.605
2.445	2.526	2.597
2.452	2.533	2.590
2.448	2.530	2.577
2.458	2.528	2.562
2.456	2.533	2.545
2.452	2.531	2.542
2.455	2.530	2.554
2.457	2.535	2.570
2.448	2.536	2.582
2.452	2.530	2.574
2.445	2.530	2.561
2.447	2.528	2.559
2.453	2.530	2.555
2.459	2.533	2.551
2.464	2.537	2.542
2.457	2.528	2.535
2.457	2.527	2.545
2.457	2.528	2.555
2.457	2.536	2.555
2.464	2.528	2.545
2.454	2.530	2.537
2.460	2.532	2.547
2.459	2.530	2.555
2.454	2.531	2.568
2.450	2.530	2.570
2.450	2.531	2.574
2.450	2.531	2.581
2.452	2.532	2.581
2.460	2.532	2.581
2.457	2.526	2.577
2.463	2.534	2.577
2.458	2.533	2.574
2.452	2.528	2.585
2.458	2.528	2.594
2.454	2.533	2.614
2.454	2.532	2.627
2.460	2.541	2.624
2.455	2.535	2.611
2.452	2.533	2.611
2.453	2.530	2.611
2.449	2.533	2.612
2.458	2.532	2.619
2.457	2.531	2.626
2.457	2.533	2.621
2.455	2.530	2.604
2.450	2.526	2.593
2.445	2.535	2.591
2.460	2.527	2.588
2.453	2.531	2.597
2.449	2.535	2.599
2.451	2.530	2.601
2.460	2.538	2.605
2.460	2.530	2.607
2.462	2.536	2.599
2.464	2.530	2.602
2.467	2.537	2.609
2.452	2.535	2.604
2.450	2.529	2.597
2.460	2.536	2.611
2.455	2.532	2.618
2.454	2.531	2.619
2.462	2.523	2.618
2.457	2.536	2.628
2.459	2.539	2.630
2.453	2.535	2.629
2.457	2.535	2.629
2.452	2.538	2.621
2.454	2.530	2.606
2.454	2.537	2.586
2.453	2.535	2.588
2.450	2.538	2.584
2.447	2.536	2.576
2.452	2.540	2.574
2.447	2.533	2.591
2.448	2.535	2.594
2.450	2.535	2.599
2.442	2.538	2.592
2.446	2.538	2.597
2.452	2.533	2.594
2.448	2.532	2.597
2.457	2.530	2.607
2.452	2.538	2.595
2.457	2.536	2.589
2.448	2.535	2.586
2.448	2.532	2.574
2.448	2.533	2.569
2.448	2.541	2.567
2.448	2.530	2.563
2.452	2.535	2.563
2.443	2.530	2.575
2.445	2.538	2.601
2.442	2.534	2.611
2.447	2.533	2.622
2.458	2.527	2.618
2.461	2.533	2.609
2.460	2.533	2.592
2.459	2.535	2.590
2.457	2.535	2.599
2.452	2.535	2.588
2.450	2.538	2.584
2.451	2.540	2.581
2.445	2.537	2.582
2.448	2.536	2.591
2.447	2.535	2.587
2.444	2.541	2.579
2.445	2.534	2.586
2.447	2.531	2.587
2.448	2.533	2.589
2.450	2.527	2.585
2.447	2.543	2.570
2.443	2.535	2.575
2.448	2.535	2.565
2.450	2.535	2.580
2.450	2.541	2.583
2.455	2.535	2.577
2.447	2.538	2.572
2.447	2.534	2.580
2.447	2.532	2.583
2.454	2.533	2.582
2.455	2.537	2.572
2.453	2.540	2.564
2.454	2.536	2.563
2.452	2.538	2.561
2.453	2.532	2.545
2.452	2.537	2.535
2.447	2.538	2.535
2.440	2.532	2.539
2.447	2.536	2.537
2.442	2.532	2.547
2.438	2.539	2.550
2.437	2.527	2.555
2.441	2.533	2.562
2.447	2.538	2.564
2.447	2.535	2.567
2.452	2.537	2.574
2.455	2.536	2.581
2.452	2.537	2.575
2.454	2.535	2.560
2.460	2.535	2.550
2.456	2.535	2.542
2.452	2.538	2.549
2.452	2.534	2.545
2.447	2.523	2.540
2.455	2.533	2.518
2.459	2.532	2.515
2.460	2.535	2.518
2.457	2.538	2.505
2.465	2.532	2.499
2.457	2.536	2.506
2.462	2.533	2.506
2.460	2.536	2.506
2.457	2.530	2.508
2.452	2.529	2.518
2.442	2.534	2.523
2.442	2.527	2.521
2.443	2.528	2.523
2.451	2.530	2.529
2.445	2.531	2.528
2.449	2.528	2.528
2.452	2.525	2.529
2.453	2.528	2.540
2.447	2.531	2.552
2.445	2.530	2.566
2.448	2.532	2.560
2.445	2.528	2.557
2.448	2.531	2.545
2.450	2.532	2.547
2.443	2.536	2.549
2.450	2.528	2.551
2.445	2.528	2.549
2.449	2.532	2.548
2.449	2.528	2.540
2.455	2.528	2.547
2.457	2.530	2.550
2.457	2.531	2.549
2.451	2.528	2.541
2.454	2.528	2.532
2.452	2.525	2.525
2.455	2.529	2.522
2.452	2.526	2.526
2.455	2.528	2.530
2.447	2.530	2.531
2.443	2.531	2.525
2.448	2.530	2.522
2.445	2.521	2.528
2.444	2.531	2.539
2.440	2.535	2.554
2.445	2.523	2.575
2.443	2.526	2.575
2.443	2.530	2.574
2.447	2.530	2.574
2.448	2.526	2.559
2.450	2.530	2.560
2.450	2.530	2.557
2.448	2.531	2.557
2.460	2.527	2.555
2.460	2.531	2.555
2.454	2.531	2.547
2.452	2.527	2.542
2.457	2.531	2.531
2.454	2.536	2.523
2.458	2.532	2.525
2.452	2.535	2.525
2.452	2.525	2.524
2.450	2.530	2.532
2.450	2.530	2.542
2.445	2.528	2.550
2.450	2.530	2.542
2.440	2.523	2.548
2.443	2.530	2.556
2.441	2.526	2.559
2.447	2.528	2.573
2.452	2.536	2.562
2.450	2.530	2.569
2.450	2.532	2.572
2.452	2.527	2.570
2.453	2.535	2.564
2.445	2.532	2.560
2.445	2.536	2.557
2.445	2.538	2.560
2.444	2.538	2.552
2.438	2.530	2.551
2.440	2.531	2.550
2.441	2.530	2.549
2.445	2.531	2.535
2.448	2.536	2.519
2.445	2.524	2.510
2.448	2.526	2.505
2.446	2.532	2.524
2.447	2.531	2.528
2.449	2.528	2.528
2.447	2.527	2.535
2.452	2.530	2.536
2.450	2.533	2.537
2.449	2.532	2.540
2.454	2.525	2.546
2.453	2.533	2.557
2.453	2.523	2.567
2.457	2.531	2.571
2.459	2.532	2.577
2.455	2.536	2.581
2.457	2.520	2.582
2.450	2.528	2.569
2.447	2.530	2.552
2.454	2.535	2.539
2.454	2.531	2.545
2.455	2.527	2.540
2.456	2.531	2.535
2.453	2.530	2.539
2.454	2.539	2.537
2.460	2.532	2.547
2.460	2.527	2.550
2.457	2.530	2.540
2.460	2.531	2.540
2.463	2.528	2.540
2.465	2.523	2.545
2.464	2.532	2.545
2.454	2.527	2.544
2.452	2.530	2.539
2.452	2.530	2.540
2.450	2.533	2.545
2.455	2.538	2.557
2.452	2.535	2.558
2.460	2.528	2.564
2.455	2.526	2.574
2.457	2.530	2.581
2.453	2.531	2.584
2.455	2.531	2.585
2.455	2.523	2.570
2.450	2.528	2.560
2.452	2.523	2.558
2.453	2.530	2.540
2.455	2.525	2.523
2.455	2.526	2.522
2.458	2.524	2.522
2.447	2.529	2.539
2.455	2.526	2.541
2.455	2.533	2.540
2.450	2.531	2.542
2.443	2.530	2.533
2.440	2.531	2.522
2.445	2.530	2.521
2.441	2.527	2.516
2.440	2.533	2.513
2.445	2.530	2.525
2.443	2.533	2.523
2.445	2.529	2.519
2.443	2.534	2.530
2.440	2.523	2.530
2.438	2.530	2.530
2.440	2.530	2.525
2.441	2.529	2.521
2.442	2.530	2.515
2.443	2.531	2.528
2.443	2.530	2.532
2.445	2.530	2.535
2.447	2.528	2.523
2.452	2.530	2.522
2.450	2.533	2.533
2.447	2.535	2.542
2.443	2.531	2.547
2.441	2.530	2.544
2.440	2.530	2.544
2.440	2.533	2.541
2.440	2.536	2.538
2.438	2.538	2.531
2.440	2.530	2.535
2.447	2.532	2.535
2.443	2.537	2.538
2.445	2.530	2.540
2.440	2.533	2.540
2.444	2.532	2.538
2.445	2.530	2.544
2.445	2.532	2.543
2.440	2.533	2.542
2.440	2.530	2.558
2.440	2.530	2.567
2.438	2.537	2.564
2.438	2.530	2.554
2.434	2.530	2.547
2.429	2.531	2.532
2.433	2.532	2.533
2.438	2.531	2.522
2.440	2.530	2.515
2.440	2.534	2.515
2.440	2.530	2.522
2.445	2.530	2.530
2.443	2.535	2.528
2.440	2.530	2.523
2.435	2.531	2.518
2.440	2.530	2.531
2.440	2.528	2.542
2.448	2.532	2.551
2.448	2.530	2.547
2.445	2.531	2.540
2.449	2.531	2.542
2.443	2.531	2.554
2.444	2.531	2.560
2.442	2.532	2.556
2.448	2.535	2.554
2.444	2.531	2.548
2.448	2.540	2.547
2.442	2.535	2.542
2.443	2.540	2.538
2.447	2.535	2.539
2.448	2.532	2.525
2.440	2.531	2.525
2.436	2.538	2.528
2.440	2.535	2.520
2.445	2.527	2.526
2.443	2.535	2.540
2.445	2.535	2.557
2.443	2.533	2.568
2.447	2.527	2.574
2.454	2.531	2.574
2.458	2.529	2.559
2.464	2.528	2.556
2.467	2.528	2.550
2.460	2.531	2.542
2.455	2.538	2.540
2.455	2.532	2.532
2.457	2.532	2.536
2.455	2.533	2.550
2.446	2.535	2.555
2.439	2.530	2.545
2.444	2.528	2.545
2.445	2.533	2.538
2.440	2.532	2.538
2.440	2.533	2.541
2.442	2.533	2.533
2.444	2.533	2.528
2.444	2.532	2.517
2.450	2.531	2.520
2.445	2.529	2.521
2.440	2.528	2.519
2.450	2.533	2.538
2.455	2.538	2.545
2.455	2.532	2.547
2.455	2.536	2.541
2.467	2.530	2.554
2.460	2.530	2.559
2.455	2.531	2.560
2.463	2.533	2.555
2.451	2.530	2.557
2.455	2.532	2.549
2.450	2.532	2.547
2.450	2.530	2.540
2.452	2.533	2.528
2.450	2.532	2.520
2.448	2.541	2.521
2.450	2.525	2.521
2.454	2.530	2.516
2.444	2.532	2.518
2.445	2.530	2.525
2.440	2.531	2.532
2.440	2.531	2.537
2.447	2.525	2.527
2.447	2.536	2.519
2.443	2.525	2.511
2.441	2.530	2.500
2.442	2.541	2.486
2.443	2.536	2.478
2.443	2.533	2.462
2.438	2.536	2.453
2.438	2.528	2.464
2.438	2.531	2.474
2.438	2.530	2.488
2.438	2.533	2.502
2.443	2.535	2.508
2.445	2.531	2.521
2.440	2.529	2.522
2.440	2.532	2.523
2.445	2.536	2.515
2.442	2.536	2.517
2.438	2.525	2.525
2.437	2.538	2.523
2.437	2.538	2.525
2.436	2.535	2.528
2.439	2.532	2.530
2.442	2.528	2.521
2.440	2.533	2.522
2.440	2.534	2.523
2.443	2.537	2.528
2.440	2.532	2.523
2.441	2.533	2.513
2.445	2.525	2.505
2.446	2.532	2.519
2.442	2.533	2.535
2.436	2.536	2.540
2.440	2.532	2.535
2.445	2.528	2.526
2.443	2.531	2.515
2.443	2.533	2.506
2.445	2.540	2.513
2.440	2.535	2.509
2.441	2.532	2.506
2.443	2.533	2.510
2.437	2.535	2.508
2.440	2.531	2.513
2.445	2.530	2.514
2.447	2.532	2.506
2.445	2.530	2.498
2.445	2.530	2.480
2.445	2.532	2.507
2.446	2.534	2.525
2.446	2.540	2.535
2.443	2.531	2.537
2.440	2.524	2.537
2.443	2.530	2.539
2.440	2.531	2.535
2.440	2.531	2.523
2.440	2.535	2.525
2.440	2.535	2.518
2.451	2.529	2.517
2.444	2.531	2.521
2.436	2.530	2.524
2.440	2.533	2.528
2.440	2.530	2.530
2.445	2.530	2.537
2.445	2.528	2.550
2.445	2.538	2.560
2.445	2.535	2.560
2.446	2.528	2.557
2.441	2.535	2.552
2.436	2.535	2.541
2.443	2.530	2.542
2.440	2.530	2.542
2.440	2.535	2.545
2.443	2.531	2.553
2.440	2.528	2.538
2.438	2.539	2.523
2.441	2.530	2.517
2.436	2.531	2.506
2.433	2.533	2.496
2.440	2.531	2.509
2.440	2.530	2.511
2.445	2.528	2.522
2.442	2.532	2.524
2.440	2.530	2.525
2.440	2.530	2.522
2.441	2.533	2.523
2.440	2.528	2.533
2.436	2.536	2.537
2.440	2.533	2.527
2.440	2.532	2.518
2.443	2.530	2.499
2.440	2.530	2.504
2.438	2.525	2.506
2.435	2.530	2.503
2.438	2.535	2.500
2.433	2.525	2.503
2.429	2.531	2.528
2.425	2.530	2.535
2.435	2.526	2.518
2.442	2.520	2.518
2.438	2.531	2.518
2.435	2.523	2.519
2.435	2.530	2.523
2.438	2.525	2.506
2.434	2.526	2.500
2.432	2.530	2.506
2.430	2.525	2.514
2.430	2.520	2.515
2.428	2.526	2.524
2.430	2.530	2.547
2.440	2.530	2.535
2.440	2.531	2.525
2.443	2.527	2.535
2.450	2.522	2.541
2.444	2.528	2.530
2.450	2.528	2.511
2.447	2.523	2.496
2.443	2.531	2.476
2.442	2.525	2.474
2.443	2.527	2.479
2.440	2.530	2.486
2.441	2.530	2.493
2.438	2.530	2.503
2.434	2.527	2.496
2.440	2.529	2.506
2.440	2.525	2.510
2.440	2.528	2.506
2.440	2.523	2.523
2.440	2.533	2.547
2.440	2.521	2.546
2.444	2.528	2.544
2.442	2.528	2.537
2.447	2.530	2.547
2.452	2.528	2.559
2.452	2.533	2.572
2.452	2.533	2.569
2.450	2.524	2.560
2.450	2.528	2.546
2.455	2.534	2.538
2.444	2.526	2.538
2.447	2.534	2.540
2.451	2.528	2.557
2.450	2.532	2.557
2.447	2.530	2.559
2.448	2.530	2.552
2.448	2.530	2.552
2.460	2.533	2.542
2.455	2.534	2.539
2.463	2.530	2.548
2.458	2.529	2.544
2.461	2.532	2.554
2.460	2.530	2.575
2.460	2.530	2.584
2.449	2.530	2.584
2.459	2.530	2.576
2.458	2.530	2.560
2.459	2.530	2.545
2.465	2.528	2.540
2.461	2.532	2.536
2.460	2.528	2.537
2.465	2.530	2.548
2.465	2.532	2.570
2.464	2.530	2.589
2.467	2.531	2.591
2.465	2.526	2.570
2.462	2.526	2.580
2.463	2.530	2.584
2.467	2.530	2.575
2.453	2.530	2.559
2.462	2.531	2.555
2.457	2.525	2.554
2.455	2.528	2.544
2.450	2.532	2.544
2.460	2.534	2.540
2.454	2.527	2.532
2.451	2.535	2.520
2.450	2.533	2.514
2.444	2.532	2.525
2.448	2.529	2.540
2.452	2.530	2.540
2.459	2.528	2.547
2.462	2.538	2.559
2.470	2.538	2.587
2.474	2.529	2.594
2.468	2.531	2.591
2.469	2.534	2.571
2.467	2.523	2.562
2.460	2.530	2.559
2.462	2.531	2.551
2.465	2.531	2.542
2.462	2.528	2.536
2.459	2.532	2.535
2.455	2.532	2.530
2.450	2.535	2.535
2.447	2.530	2.541
2.451	2.526	2.560
2.452	2.531	2.567
2.452	2.531	2.567
2.455	2.530	2.557
2.455	2.532	2.549
2.454	2.530	2.545
2.450	2.531	2.552
2.455	2.531	2.560
2.453	2.530	2.559
2.448	2.527	2.561
2.450	2.535	2.569
2.450	2.531	2.574
2.447	2.528	2.559
2.455	2.528	2.545
2.454	2.529	2.533
2.455	2.529	2.522
2.450	2.533	2.520
2.451	2.533	2.521
2.455	2.533	2.511
2.452	2.531	2.501
2.455	2.532	2.503
2.450	2.533	2.508
2.457	2.533	2.508
2.452	2.531	2.510
2.448	2.528	2.509
2.453	2.533	2.518
2.452	2.530	2.532
2.455	2.529	2.545
2.450	2.528	2.545
2.450	2.531	2.546
2.455	2.528	2.550
2.455	2.531	2.527
2.452	2.522	2.513
2.447	2.532	2.504
2.450	2.531	2.511
2.453	2.525	2.511
2.456	2.528	2.509
2.465	2.530	2.506
2.460	2.530	2.503
2.455	2.528	2.491
2.457	2.528	2.493
2.452	2.528	2.482
2.450	2.529	2.487
2.457	2.531	2.478
2.447	2.530	2.493
2.440	2.530	2.506
2.445	2.533	2.513
2.445	2.536	2.515
2.448	2.535	2.522
2.447	2.526	2.523
2.447	2.530	2.524
2.450	2.534	2.536
2.448	2.529	2.542
2.447	2.530	2.552
2.451	2.528	2.559
2.455	2.530	2.567
2.457	2.528	2.576
2.450	2.531	2.573
2.452	2.531	2.576
2.450	2.531	2.577
2.450	2.532	2.581
2.448	2.533	2.584
2.453	2.528	2.574
2.458	2.531	2.572
2.453	2.528	2.572
2.452	2.530	2.550
2.450	2.536	2.554
2.450	2.530	2.542
2.450	2.530	2.530
2.445	2.531	2.518
2.448	2.527	2.510
2.449	2.527	2.504
2.460	2.528	2.499
2.450	2.531	2.509
2.450	2.533	2.511
2.450	2.534	2.519
2.457	2.538	2.517
2.454	2.535	2.528
2.462	2.528	2.538
2.462	2.530	2.542
2.457	2.530	2.543
2.459	2.532	2.540
2.460	2.533	2.541
2.457	2.530	2.540
2.458	2.525	2.540
2.450	2.530	2.537
2.448	2.533	2.529
2.447	2.529	2.522
2.448	2.522	2.515
2.450	2.533	2.515
2.450	2.530	2.523
2.447	2.535	2.538
2.454	2.528	2.548
2.449	2.533	2.551
2.452	2.528	2.533
2.445	2.531	2.523
2.448	2.528	2.510
2.442	2.531	2.506
2.439	2.529	2.512
2.449	2.532	2.518
2.452	2.536	2.513
2.452	2.530	2.518
2.458	2.533	2.521
2.460	2.536	2.522
2.455	2.535	2.523
2.457	2.530	2.525
2.450	2.531	2.530
2.447	2.528	2.527
2.455	2.530	2.522
2.452	2.532	2.519
2.452	2.531	2.523
2.450	2.530	2.526
2.449	2.536	2.530
2.458	2.528	2.541
2.460	2.530	2.545
2.450	2.530	2.546
2.460	2.530	2.553
2.458	2.530	2.555
2.460	2.535	2.553
2.452	2.532	2.559
2.458	2.533	2.580
2.460	2.531	2.582
2.460	2.532	2.574
2.462	2.531	2.579
2.465	2.534	2.586
2.454	2.532	2.587
2.460	2.530	2.585
2.457	2.533	2.574
2.457	2.530	2.575
2.460	2.535	2.572
2.460	2.530	2.563
2.460	2.531	2.564
2.462	2.538	2.567
2.460	2.532	2.574
2.457	2.526	2.575
2.468	2.533	2.574
2.460	2.536	2.567
2.462	2.535	2.574
2.460	2.532	2.589
2.459	2.527	2.594
2.465	2.536	2.597
2.470	2.528	2.604
2.462	2.530	2.611
2.468	2.530	2.613
2.465	2.531	2.624
2.462	2.531	2.621
2.467	2.531	2.621
2.462	2.531	2.611
2.469	2.530	2.591
2.470	2.526	2.585
2.469	2.527	2.571
2.470	2.530	2.577
2.469	2.531	2.566
2.470	2.538	2.572
2.469	2.533	2.572
2.470	2.530	2.576
2.467	2.530	2.583
2.470	2.530	2.590
2.470	2.533	2.589
2.469	2.532	2.592
2.468	2.535	2.599
2.464	2.537	2.591
2.466	2.530	2.585
2.463	2.532	2.581
2.465	2.530	2.576
2.460	2.527	2.562
2.457	2.525	2.560
2.465	2.528	2.557
2.460	2.530	2.574
2.462	2.526	2.575
2.460	2.528	2.581
2.459	2.526	2.594
2.457	2.534	2.594
2.465	2.530	2.584
2.460	2.531	2.585
2.457	2.528	2.581
2.463	2.530	2.574
2.460	2.537	2.587
2.460	2.532	2.589
2.459	2.535	2.582
2.458	2.530	2.579
2.456	2.531	2.591
2.462	2.535	2.601
2.457	2.532	2.601
2.452	2.531	2.587
2.455	2.533	2.577
2.455	2.533	2.579
2.450	2.532	2.567
2.449	2.530	2.562
2.459	2.531	2.574
2.451	2.533	2.585
2.455	2.541	2.593
2.458	2.537	2.621
2.455	2.530	2.616
2.465	2.535	2.611
2.460	2.526	2.593
2.464	2.533	2.585
2.465	2.530	2.574
2.459	2.528	2.563
2.447	2.525	2.557
2.452	2.530	2.548
2.448	2.528	2.551
2.449	2.531	2.552
2.453	2.530	2.561
2.448	2.532	2.567
2.440	2.535	2.568
2.447	2.533	2.570
2.453	2.535	2.579
2.453	2.529	2.594
2.465	2.527	2.579
2.460	2.526	2.584
2.467	2.528	2.583
2.460	2.528	2.594
2.457	2.531	2.591
2.460	2.527	2.584
2.457	2.525	2.578
2.461	2.531	2.579
2.455	2.528	2.577
2.459	2.527	2.582
2.454	2.531	2.599
2.458	2.530	2.599
2.450	2.527	2.605
2.445	2.534	2.586
2.453	2.528	2.579
2.448	2.531	2.568
2.453	2.525	2.560
2.448	2.531	2.570
2.445	2.527	2.581
2.443	2.532	2.581
2.440	2.524	2.584
2.443	2.532	2.578
2.445	2.531	2.581
2.442	2.529	2.582
2.443	2.529	2.579
2.441	2.524	2.575
2.438	2.525	2.561
2.450	2.528	2.569
2.443	2.523	2.571
2.444	2.526	2.560
2.443	2.528	2.538
2.455	2.530	2.535
2.455	2.528	2.530
2.453	2.532	2.522
2.449	2.531	2.517
2.448	2.528	2.518
2.445	2.526	2.518
2.445	2.529	2.535
2.443	2.530	2.552
2.443	2.531	2.567
2.450	2.528	2.575
2.445	2.530	2.569
2.455	2.530	2.575
2.458	2.528	2.579
2.453	2.531	2.597
2.455	2.530	2.589
2.448	2.528	2.604
2.453	2.523	2.601
2.454	2.529	2.602
2.453	2.528	2.605
2.445	2.531	2.602
2.451	2.530	2.597
2.450	2.531	2.594
2.443	2.528	2.586
2.443	2.530	2.570
2.440	2.530	2.560
2.440	2.528	2.552
2.445	2.530	2.540
2.443	2.528	2.525
2.443	2.525	2.519
2.438	2.527	2.518
2.444	2.518	2.523
2.448	2.525	2.524
2.445	2.530	2.532
2.443	2.530	2.547
2.440	2.530	2.540
2.443	2.531	2.529
2.440	2.526	2.522
2.445	2.528	2.510
2.446	2.523	2.501
2.442	2.523	2.493
2.439	2.531	2.493
2.440	2.530	2.498
2.435	2.528	2.503
2.440	2.523	2.508
2.440	2.523	2.503
2.448	2.530	2.508
2.440	2.531	2.508
2.441	2.529	2.497
2.443	2.530	2.501
2.436	2.524	2.498
2.435	2.521	2.498
2.435	2.526	2.501
2.430	2.526	2.509
2.432	2.529	2.521
2.433	2.522	2.529
2.430	2.522	2.522
2.431	2.525	2.513
2.436	2.525	2.499
2.438	2.519	2.503
2.438	2.523	2.505
2.435	2.521	2.509
2.435	2.530	2.513
2.430	2.525	2.506
2.428	2.524	2.492
2.438	2.523	2.487
2.433	2.524	2.486
2.441	2.524	2.488
2.441	2.521	2.486
2.440	2.528	2.473
2.430	2.531	2.472
2.433	2.526	2.479
2.435	2.528	2.482
2.438	2.518	2.487
2.433	2.528	2.489
2.433	2.525	2.488
2.433	2.523	2.498
2.432	2.526	2.500
2.435	2.523	2.499
2.435	2.528	2.504
2.433	2.523	2.501
2.430	2.522	2.511
2.430	2.528	2.497
2.433	2.525	2.498
2.430	2.528	2.506
2.439	2.526	2.510
2.438	2.525	2.520
2.438	2.532	2.514
2.435	2.523	2.525
2.438	2.528	2.556
2.440	2.531	2.560
2.434	2.521	2.567
2.440	2.523	2.559
2.440	2.520	2.541
2.442	2.531	2.532
2.441	2.521	2.532
2.438	2.528	2.553
2.440	2.528	2.554
2.443	2.525	2.543
2.440	2.525	2.526
2.434	2.525	2.528
2.438	2.526	2.523
2.433	2.529	2.511
2.441	2.525	2.511
2.440	2.518	2.508
2.443	2.523	2.523
2.443	2.525	2.544
2.440	2.530	2.553
2.440	2.528	2.559
2.437	2.523	2.560
2.440	2.527	2.565
2.440	2.521	2.561
2.444	2.524	2.550
2.444	2.521	2.544
2.440	2.523	2.547
2.438	2.527	2.547
2.438	2.534	2.540
2.442	2.523	2.542
2.439	2.531	2.541
2.440	2.531	2.545
2.438	2.530	2.552
2.441	2.526	2.559
2.438	2.528	2.562
2.438	2.523	2.568
2.430	2.531	2.577
2.438	2.528	2.575
2.440	2.529	2.572
2.437	2.529	2.550
2.440	2.530	2.534
2.440	2.531	2.530
2.448	2.533	2.533
2.444	2.526	2.526
2.438	2.528	2.526
2.438	2.526	2.535
2.443	2.525	2.540
2.440	2.530	2.546
2.441	2.532	2.557
2.441	2.528	2.574
2.443	2.520	2.582
2.444	2.536	2.579
2.445	2.529	2.578
2.435	2.528	2.581
2.438	2.526	2.574
2.438	2.525	2.572
2.440	2.532	2.557
2.447	2.528	2.557
2.447	2.523	2.569
2.448	2.527	2.578
2.450	2.523	2.576
2.445	2.531	2.567
2.450	2.531	2.560
2.445	2.531	2.550
2.444	2.533	2.545
2.443	2.527	2.547
2.442	2.533	2.565
2.440	2.528	2.577
2.455	2.531	2.577
2.448	2.535	2.575
2.445	2.531	2.562
2.444	2.525	2.556
2.443	2.525	2.558
2.446	2.532	2.562
2.450	2.529	2.560
2.455	2.529	2.553
2.455	2.530	2.548
2.457	2.522	2.550
2.451	2.525	2.550
2.451	2.525	2.550
2.447	2.528	2.554
2.452	2.523	2.556
2.460	2.526	2.570
2.457	2.529	2.583
2.450	2.523	2.577
2.450	2.530	2.586
2.455	2.530	2.600
2.455	2.527	2.613
2.452	2.529	2.610
2.453	2.535	2.609
2.455	2.528	2.594
2.450	2.528	2.592
2.450	2.528	2.589
2.454	2.520	2.596
2.455	2.531	2.604
2.464	2.531	2.608
2.455	2.530	2.614
2.458	2.533	2.608
2.459	2.530	2.606
2.462	2.531	2.606
2.457	2.530	2.616
2.462	2.529	2.626
2.462	2.530	2.631
2.470	2.527	2.631
2.470	2.530	2.631
2.460	2.531	2.642
2.456	2.530	2.639
2.452	2.532	2.624
2.457	2.530	2.616
2.457	2.535	2.606
2.458	2.530	2.594
2.457	2.530	2.594
2.457	2.531	2.599
2.467	2.525	2.595
2.456	2.531	2.600
2.459	2.528	2.601
2.465	2.530	2.593
2.463	2.525	2.586
2.465	2.530	2.591
2.467	2.530	2.582
2.459	2.530	2.585
2.464	2.532	2.596
2.470	2.528	2.591
2.465	2.528	2.603
2.468	2.533	2.614
2.462	2.532	2.619
2.467	2.535	2.626
2.465	2.535	2.623
2.466	2.533	2.619
2.469	2.533	2.613
2.470	2.522	2.633
2.470	2.531	2.646
2.481	2.532	2.655
2.472	2.538	2.652
2.468	2.535	2.631
2.472	2.536	2.623
2.475	2.532	2.613
2.473	2.535	2.611
2.472	2.530	2.606
2.475	2.528	2.609
2.477	2.535	2.619
2.488	2.528	2.630
2.481	2.531	2.626
2.480	2.531	2.624
2.472	2.529	2.613
2.475	2.530	2.597
2.474	2.531	2.590
2.467	2.528	2.589
2.470	2.527	2.604
2.464	2.532	2.623
2.470	2.534	2.621
2.471	2.533	2.619
2.469	2.530	2.630
2.474	2.531	2.636
2.474	2.530	2.632
2.474	2.528	2.629
2.476	2.537	2.621
2.472	2.531	2.623
2.469	2.528	2.634
2.470	2.530	2.635
2.471	2.536	2.631
2.469	2.529	2.633
2.472	2.528	2.631
2.472	2.532	2.625
2.467	2.533	2.619
2.472	2.531	2.614
2.469	2.531	2.597
2.469	2.530	2.589
2.475	2.528	2.584
2.477	2.535	2.580
2.471	2.533	2.590
2.470	2.535	2.587
2.474	2.525	2.577
2.475	2.536	2.572
2.469	2.533	2.577
2.469	2.533	2.588
2.472	2.532	2.597
2.472	2.531	2.601
2.473	2.535	2.611
2.473	2.530	2.613
2.472	2.530	2.612
2.467	2.530	2.600
2.467	2.525	2.590
2.470	2.530	2.600
2.464	2.533	2.589
2.462	2.529	2.579
2.475	2.531	2.564
2.471	2.526	2.562
2.475	2.533	2.565
2.472	2.532	2.585
2.469	2.531	2.586
2.475	2.530	2.589
2.472	2.532	2.579
2.469	2.534	2.582
2.470	2.528	2.574
2.467	2.530	2.575
2.462	2.536	2.559
2.465	2.534	2.540
2.468	2.532	2.534
2.458	2.525	2.541
2.463	2.530	2.537
2.462	2.531	2.530
2.467	2.528	2.535
2.467	2.528	2.542
2.470	2.533	2.532
2.463	2.531	2.523
2.462	2.530	2.525
2.467	2.528	2.530
2.458	2.533	2.530
2.463	2.532	2.538
2.465	2.534	2.533
2.465	2.533	2.531
2.462	2.531	2.527
2.457	2.530	2.534
2.459	2.530	2.530
2.463	2.525	2.525
2.462	2.533	2.531
2.462	2.531	2.534
2.465	2.528	2.536
2.465	2.531	2.530
2.457	2.531	2.518
2.457	2.531	2.510
2.452	2.529	2.515
2.455	2.529	2.497
2.454	2.531	2.503
2.450	2.526	2.498
2.457	2.531	2.496
2.450	2.530	2.495
2.457	2.528	2.490
2.460	2.532	2.484
2.460	2.531	2.489
2.462	2.530	2.495
2.460	2.532	2.503
2.457	2.530	2.503
2.457	2.529	2.515
2.462	2.531	2.527
2.463	2.530	2.529
2.462	2.528	2.545
2.470	2.533	2.559
2.470	2.536	2.570
2.470	2.528	2.561
2.467	2.531	2.567
2.463	2.532	2.567
2.462	2.533	2.559
2.462	2.531	2.540
2.456	2.533	2.524
2.458	2.534	2.522
2.460	2.535	2.543
2.452	2.535	2.557
2.462	2.532	2.547
2.467	2.533	2.543
2.465	2.533	2.541
2.467	2.528	2.552
2.465	2.528	2.557
2.468	2.530	2.585
2.462	2.530	2.593
2.470	2.532	2.605
2.467	2.536	2.618
2.467	2.536	2.624
2.463	2.533	2.614
2.463	2.526	2.614
2.465	2.535	2.601
2.463	2.538	2.601
2.463	2.531	2.606
2.462	2.530	2.620
2.470	2.533	2.609
2.469	2.532	2.598
2.474	2.541	2.587
2.469	2.535	2.584
2.473	2.535	2.584
2.469	2.538	2.594
2.470	2.535	2.587
2.465	2.539	2.587
2.464	2.538	2.593
2.462	2.533	2.602
2.465	2.536	2.630
2.465	2.535	2.633
2.462	2.535	2.624
2.471	2.538	2.611
2.472	2.541	2.604
2.469	2.535	2.613
2.470	2.538	2.602
2.474	2.534	2.598
2.470	2.537	2.594
2.472	2.535	2.591
2.470	2.539	2.593
2.467	2.538	2.607
2.470	2.541	2.616
2.474	2.540	2.616
2.477	2.540	2.619
2.472	2.543	2.611
2.472	2.528	2.616
2.473	2.531	2.615
2.469	2.540	2.611
2.470	2.540	2.611
2.475	2.541	2.606
2.470	2.536	2.611
2.466	2.540	2.606
2.472	2.533	2.618
2.475	2.538	2.626
2.469	2.541	2.627
2.470	2.535	2.631
2.470	2.537	2.630
2.475	2.541	2.612
2.474	2.538	2.604
2.471	2.535	2.611
2.467	2.536	2.621
2.479	2.541	2.619
2.470	2.541	2.611
2.470	2.534	2.618
2.470	2.535	2.632
2.469	2.540	2.638
2.472	2.538	2.623
2.470	2.538	2.611
2.476	2.535	2.609
2.468	2.535	2.593
2.467	2.537	2.581
2.467	2.530	2.576
2.470	2.536	2.560
2.467	2.541	2.542
2.465	2.540	2.544
2.465	2.529	2.550
2.461	2.531	2.551
2.465	2.536	2.550
2.459	2.538	2.550
2.462	2.537	2.552
2.460	2.540	2.554
2.465	2.529	2.553
2.455	2.536	2.554
2.462	2.537	2.568
2.465	2.541	2.567
2.462	2.540	2.564
2.461	2.542	2.567
2.468	2.540	2.574
2.475	2.537	2.568
2.472	2.532	2.561
2.470	2.538	2.553
2.458	2.533	2.545
2.460	2.538	2.546
2.462	2.535	2.552
2.453	2.537	2.565
2.456	2.535	2.572
2.458	2.540	2.574
2.460	2.536	2.584
2.462	2.536	2.589
2.462	2.538	2.604
2.460	2.540	2.614
2.457	2.538	2.604
2.455	2.540	2.596
2.454	2.535	2.589
2.455	2.535	2.589
2.451	2.532	2.578
2.460	2.537	2.584
2.458	2.535	2.579
2.454	2.541	2.579
2.453	2.532	2.575
2.450	2.538	2.575
2.450	2.541	2.574
2.442	2.541	2.574
2.449	2.540	2.567
2.447	2.538	2.574
2.448	2.541	2.584
2.453	2.538	2.589
2.457	2.532	2.600
2.466	2.537	2.604
2.462	2.537	2.611
2.467	2.532	2.606
2.467	2.541	2.580
2.471	2.536	2.572
2.465	2.536	2.560
2.467	2.536	2.560
2.460	2.536	2.562
2.460	2.537	2.559
2.455	2.541	2.559
2.454	2.537	2.567
2.459	2.535	2.569
2.464	2.537	2.574
2.460	2.540	2.600
2.458	2.539	2.593
2.460	2.538	2.580
2.457	2.535	2.552
2.459	2.535	2.560
2.458	2.533	2.560
2.457	2.535	2.565
2.465	2.535	2.557
2.467	2.531	2.554
2.463	2.528	2.542
2.464	2.536	2.546
2.462	2.535	2.542
2.455	2.541	2.540
2.455	2.532	2.542
2.455	2.536	2.539
2.462	2.535	2.537
2.464	2.533	2.538
2.465	2.537	2.550
2.463	2.540	2.562
2.460	2.537	2.569
2.460	2.533	2.569
2.451	2.537	2.572
2.452	2.527	2.565
2.448	2.536	2.562
2.455	2.530	2.560
2.460	2.530	2.555
2.459	2.530	2.552
2.458	2.536	2.546
2.453	2.537	2.550
2.462	2.534	2.547
2.465	2.532	2.532
2.462	2.533	2.520
2.462	2.538	2.515
2.459	2.535	2.503
2.455	2.535	2.499
2.457	2.533	2.505
2.466	2.535	2.515
2.458	2.530	2.513
2.467	2.533	2.507
2.465	2.530	2.509
2.459	2.536	2.515
2.463	2.526	2.523
2.467	2.532	2.522
2.467	2.535	2.525
2.465	2.528	2.533
2.466	2.533	2.540
2.465	2.538	2.539
2.462	2.535	2.552
2.470	2.532	2.552
2.470	2.530	2.560
2.464	2.537	2.555
2.457	2.538	2.553
2.467	2.536	2.545
2.468	2.541	2.537
2.468	2.534	2.537
2.466	2.530	2.544
2.467	2.528	2.560
2.465	2.530	2.560
2.460	2.533	2.557
2.452	2.525	2.557
2.448	2.530	2.560
2.452	2.530	2.561
2.448	2.537	2.572
2.454	2.536	2.566
2.447	2.534	2.560
2.448	2.532	2.560
2.443	2.526	2.552
2.443	2.528	2.549
2.448	2.530	2.541
2.440	2.531	2.535
2.447	2.533	2.524
2.441	2.532	2.518
2.444	2.522	2.525
2.448	2.528	2.527
2.443	2.530	2.539
2.457	2.530	2.552
2.452	2.533	2.562
2.457	2.530	2.570
2.459	2.537	2.570
2.465	2.530	2.560
2.465	2.533	2.549
2.458	2.538	2.542
2.455	2.536	2.523
2.455	2.533	2.513
2.457	2.523	2.520
2.455	2.535	2.538
2.457	2.532	2.540
2.467	2.530	2.524
2.467	2.529	2.501
2.465	2.529	2.472
2.459	2.530	2.464
2.462	2.525	2.461
2.454	2.528	2.489
2.448	2.533	2.505
2.448	2.533	2.516
2.449	2.531	2.532
2.445	2.530	2.535
2.452	2.537	2.532
2.460	2.538	2.535
2.456	2.541	2.540
2.453	2.534	2.540
2.457	2.531	2.539
2.460	2.533	2.541
2.457	2.536	2.544
2.455	2.533	2.550
2.450	2.530	2.550
2.449	2.530	2.542
2.453	2.528	2.532
2.448	2.532	2.527
2.457	2.532	2.527
2.457	2.540	2.527
2.455	2.532	2.534
2.445	2.541	2.532
2.452	2.536	2.535
2.454	2.533	2.551
2.450	2.530	2.547
2.450	2.528	2.552
2.449	2.530	2.555
2.453	2.528	2.558
2.450	2.538	2.547
2.453	2.533	2.537
2.450	2.530	2.537
2.454	2.533	2.548
2.449	2.533	2.560
2.455	2.533	2.572
2.451	2.529	2.581
2.448	2.528	2.588
2.449	2.526	2.591
2.452	2.531	2.589
2.450	2.532	2.587
2.445	2.534	2.589
2.445	2.528	2.576
2.442	2.530	2.569
2.443	2.529	2.546
2.448	2.531	2.532
2.446	2.530	2.535
2.446	2.530	2.549
2.450	2.530	2.574
2.445	2.535	2.593
2.455	2.537	2.597
2.444	2.535	2.594
2.447	2.535	2.587
2.450	2.532	2.589
2.453	2.538	2.582
2.451	2.530	2.581
2.455	2.533	2.574
2.454	2.531	2.577
2.457	2.535	2.589
2.457	2.535	2.577
2.450	2.534	2.571
2.444	2.534	2.557
2.445	2.533	2.542
2.443	2.528	2.540
2.446	2.530	2.542
2.448	2.533	2.555
2.443	2.525	2.556
2.445	2.531	2.557
2.440	2.531	2.555
2.443	2.533	2.565
2.442	2.530	2.567
2.448	2.538	2.560
2.443	2.533	2.574
2.445	2.539	2.582
2.448	2.532	2.586
2.452	2.532	2.594
2.447	2.530	2.589
2.450	2.533	2.594
2.450	2.536	2.606
2.452	2.532	2.599
2.452	2.535	2.594
2.450	2.533	2.594
2.455	2.537	2.597
2.447	2.536	2.603
2.448	2.538	2.611
2.448	2.536	2.607
2.452	2.532	2.602
2.452	2.531	2.594
2.449	2.532	2.594
2.448	2.530	2.590
2.453	2.538	2.587
2.451	2.532	2.592
2.450	2.535	2.603
2.448	2.535	2.611
2.457	2.535	2.619
2.452	2.535	2.630
2.452	2.533	2.629
2.452	2.533	2.610
2.452	2.537	2.604
2.457	2.535	2.591
2.460	2.538	2.582
2.460	2.536	2.564
2.455	2.540	2.564
2.452	2.540	2.560
2.453	2.536	2.565
2.452	2.535	2.569
2.450	2.532	2.565
2.452	2.533	2.571
2.448	2.536	2.585
2.449	2.540	2.590
2.456	2.542	2.597
2.455	2.535	2.598
2.455	2.538	2.596
2.453	2.533	2.587
2.457	2.532	2.583
2.461	2.537	2.585
2.467	2.536	2.582
2.460	2.534	2.577
2.458	2.541	2.574
2.465	2.540	2.575
2.462	2.537	2.573
2.460	2.539	2.572
2.462	2.535	2.569
2.464	2.541	2.577
2.464	2.537	2.584
2.459	2.540	2.586
2.463	2.538	2.570
2.463	2.531	2.560
2.467	2.532	2.555
2.462	2.532	2.564
2.470	2.540	2.564
2.467	2.540	2.554
2.467	2.533	2.564
2.460	2.533	2.581
2.469	2.536	2.584
2.465	2.541	2.571
2.463	2.529	2.582
2.466	2.530	2.592
2.468	2.540	2.596
2.470	2.533	2.591
2.462	2.536	2.579
2.464	2.538	2.570
2.461	2.538	2.559
2.462	2.535	2.552
2.462	2.535	2.550
2.465	2.533	2.548
2.468	2.533	2.540
2.467	2.540	2.532
2.467	2.542	2.529
2.469	2.538	2.528
2.474	2.537	2.518
2.473	2.533	2.521
2.469	2.532	2.520
2.468	2.530	2.510
2.473	2.532	2.518
2.470	2.533	2.527
2.467	2.535	2.551
2.475	2.540	2.567
2.470	2.541	2.579
2.469	2.532	2.593
2.467	2.538	2.608
2.467	2.535	2.601
2.462	2.538	2.599
2.468	2.530	2.590
2.471	2.535	2.571
2.465	2.538	2.567
2.469	2.545	2.567
2.465	2.532	2.560
2.460	2.536	2.560
2.461	2.540	2.560
2.462	2.538	2.560
2.467	2.542	2.550
2.470	2.536	2.549
2.470	2.530	2.557
2.467	2.536	2.570
2.470	2.538	2.574
2.468	2.531	2.589
2.472	2.541	2.584
2.474	2.538	2.574
2.469	2.540	2.565
2.470	2.536	2.562
2.470	2.537	2.572
2.467	2.538	2.574
2.467	2.534	2.574
2.460	2.536	2.570
2.463	2.534	2.570
2.460	2.536	2.560
2.450	2.540	2.552
2.452	2.541	2.560
2.452	2.541	2.564
2.458	2.538	2.562
2.460	2.533	2.560
2.460	2.533	2.557
2.450	2.538	2.552
2.453	2.538	2.542
2.460	2.533	2.547
2.459	2.536	2.541
2.460	2.537	2.540
2.465	2.540	2.544
2.456	2.540	2.555
2.460	2.532	2.556
2.460	2.541	2.575
2.457	2.533	2.570
2.455	2.533	2.555
2.450	2.533	2.554
2.449	2.538	2.562
2.454	2.541	2.556
2.457	2.538	2.547
2.463	2.539	2.540
2.463	2.541	2.545
2.457	2.537	2.542
2.460	2.540	2.537
2.455	2.533	2.542
2.460	2.541	2.533
2.457	2.540	2.530
2.453	2.538	2.540
2.452	2.539	2.545
2.451	2.538	2.543
2.452	2.540	2.529
2.445	2.533	2.530
2.448	2.537	2.532
2.453	2.534	2.530
2.460	2.536	2.535
2.464	2.540	2.554
2.465	2.532	2.559
2.455	2.538	2.570
2.461	2.533	2.570
2.455	2.531	2.572
2.457	2.540	2.564
2.450	2.535	2.563
2.453	2.533	2.554
2.445	2.533	2.550
2.445	2.539	2.561
2.455	2.534	2.562
2.452	2.534	2.562
2.450	2.535	2.560
2.450	2.535	2.572
2.448	2.533	2.579
2.450	2.533	2.582
2.460	2.535	2.582
2.460	2.535	2.586
2.457	2.537	2.581
2.460	2.533	2.572
2.460	2.538	2.567
2.466	2.530	2.560
2.457	2.541	2.539
2.462	2.538	2.538
2.467	2.535	2.538
2.462	2.538	2.540
2.462	2.538	2.545
2.464	2.541	2.545
2.473	2.535	2.536
2.470	2.537	2.528
2.470	2.537	2.532
2.469	2.537	2.539
2.464	2.536	2.537
2.461	2.543	2.535
2.465	2.538	2.539
2.469	2.541	2.545
2.472	2.538	2.555
2.470	2.540	2.557
2.477	2.540	2.552
2.472	2.543	2.535
2.470	2.540	2.515
2.466	2.540	2.506
2.469	2.538	2.498
2.469	2.538	2.509
2.464	2.533	2.516
2.462	2.533	2.522
2.460	2.536	2.528
2.467	2.534	2.532
2.465	2.523	2.537
2.466	2.530	2.540
2.459	2.528	2.545
2.465	2.532	2.550
2.462	2.538	2.552
2.462	2.533	2.553
2.457	2.532	2.562
2.455	2.530	2.559
2.463	2.532	2.545
2.470	2.535	2.542
2.474	2.536	2.536
2.465	2.537	2.540
2.470	2.541	2.554
2.470	2.538	2.540
2.470	2.533	2.537
2.474	2.535	2.539
2.480	2.538	2.540
2.472	2.538	2.552
2.475	2.540	2.537
2.470	2.540	2.533
2.467	2.536	2.530
2.470	2.536	2.528
2.479	2.541	2.535
2.479	2.539	2.542
2.470	2.536	2.556
2.472	2.531	2.565
2.467	2.535	2.577
2.470	2.540	2.575
2.469	2.539	2.565
2.472	2.540	2.548
2.472	2.538	2.538
2.474	2.535	2.536
2.472	2.534	2.540
2.474	2.540	2.550
2.472	2.538	2.556
2.469	2.538	2.572
2.465	2.541	2.570
2.467	2.531	2.570
2.460	2.536	2.575
2.462	2.534	2.586
2.462	2.540	2.591
2.465	2.532	2.584
2.459	2.535	2.579
2.467	2.537	2.575
2.464	2.538	2.574
2.462	2.536	2.582
2.468	2.533	2.589
2.469	2.538	2.601
2.470	2.542	2.604
2.470	2.541	2.604
2.470	2.540	2.606
2.467	2.543	2.596
2.465	2.537	2.582
2.462	2.538	2.560
2.467	2.539	2.555
2.459	2.536	2.543
2.458	2.540	2.540
2.470	2.535	2.552
2.469	2.540	2.550
2.460	2.539	2.545
2.459	2.540	2.548
2.457	2.541	2.538
2.464	2.532	2.550
2.467	2.540	2.573
2.469	2.540	2.593
2.462	2.538	2.594
2.470	2.540	2.590
2.467	2.540	2.585
2.473	2.539	2.572
2.470	2.538	2.561
2.475	2.541	2.568
2.467	2.541	2.567
2.462	2.536	2.562
2.465	2.536	2.574
2.460	2.537	2.590
2.463	2.541	2.593
2.455	2.543	2.577
2.453	2.541	2.557
2.457	2.538	2.555
2.458	2.538	2.547
2.463	2.540	2.552
2.465	2.543	2.553
2.467	2.543	2.555
2.465	2.538	2.559
2.469	2.540	2.564
2.468	2.539	2.561
2.465	2.535	2.570
2.464	2.536	2.568
2.457	2.540	2.560
2.455	2.540	2.550
2.460	2.544	2.540
2.459	2.540	2.540
2.456	2.543	2.548
2.456	2.540	2.557
2.462	2.541	2.555
2.462	2.537	2.552
2.462	2.545	2.550
2.458	2.541	2.550
2.457	2.541	2.556
2.460	2.534	2.560
2.455	2.538	2.562
2.453	2.540	2.568
2.448	2.541	2.565
2.450	2.537	2.550
2.462	2.540	2.528
2.460	2.541	2.522
2.458	2.535	2.520
2.462	2.535	2.522
2.457	2.541	2.523
2.457	2.539	2.530
2.460	2.534	2.535
2.444	2.535	2.553
2.448	2.540	2.550
2.450	2.540	2.543
2.447	2.536	2.540
2.447	2.540	2.545
2.455	2.536	2.556
2.455	2.540	2.550
2.457	2.542	2.538
2.456	2.536	2.532
2.460	2.541	2.535
2.458	2.541	2.542
2.460	2.542	2.542
2.462	2.542	2.536
2.454	2.530	2.528
2.460	2.538	2.542
2.455	2.538	2.547
2.460	2.537	2.539
2.458	2.538	2.540
2.460	2.537	2.535
2.464	2.537	2.527
2.460	2.540	2.532
2.465	2.538	2.540
2.462	2.536	2.548
2.460	2.539	2.564
2.460	2.541	2.569
2.458	2.536	2.572
2.455	2.540	2.559
2.447	2.533	2.557
2.448	2.533	2.572
2.450	2.541	2.579
2.450	2.535	2.586
2.464	2.536	2.575
2.457	2.540	2.574
2.465	2.540	2.567
2.459	2.539	2.558
2.459	2.536	2.542
2.465	2.538	2.540
2.455	2.531	2.542
2.457	2.530	2.566
2.457	2.541	2.575
2.460	2.538	2.569
2.454	2.538	2.576
2.460	2.537	2.579
2.460	2.535	2.591
2.463	2.535	2.596
2.465	2.537	2.591
2.470	2.531	2.596
2.465	2.538	2.587
2.464	2.540	2.595
2.465	2.537	2.594
2.459	2.540	2.602
2.462	2.543	2.602
2.465	2.535	2.589
2.465	2.535	2.574
2.460	2.528	2.574
2.455	2.535	2.574
2.460	2.538	2.560
2.457	2.538	2.562
2.455	2.530	2.559
2.454	2.541	2.562
2.455	2.535	2.577
2.453	2.533	2.582
2.458	2.535	2.582
2.456	2.532	2.573
2.452	2.535	2.574
2.458	2.533	2.580
2.460	2.533	2.577
2.462	2.527	2.572
2.457	2.535	2.567
2.460	2.538	2.569
2.462	2.538	2.566
2.470	2.538	2.560
2.467	2.536	2.565
2.464	2.534	2.569
2.469	2.529	2.564
2.470	2.535	2.560
2.470	2.536	2.565
2.467	2.536	2.573
2.464	2.540	2.575
2.464	2.535	2.586
2.462	2.540	2.594
2.466	2.538	2.590
2.464	2.535	2.583
2.467	2.540	2.580
2.470	2.537	2.582
2.474	2.541	2.594
2.467	2.537	2.573
2.470	2.537	2.568
2.464	2.535	2.564
2.471	2.538	2.564
2.472	2.538	2.552
2.474	2.536	2.545
2.470	2.538	2.542
2.470	2.538	2.540
2.469	2.535	2.541
2.465	2.540	2.548
2.470	2.538	2.560
2.469	2.536	2.562
2.475	2.533	2.569
2.474	2.532	2.570
2.477	2.533	2.569
2.474	2.535	2.575
2.478	2.540	2.572
2.475	2.533	2.574
2.474	2.540	2.568
2.474	2.538	2.560
2.480	2.535	2.547
2.480	2.540	2.540
2.470	2.533	2.533
2.473	2.541	2.532
2.472	2.540	2.525
2.482	2.533	2.529
2.482	2.535	2.526
2.477	2.533	2.527
2.477	2.533	2.532
2.477	2.537	2.531
2.478	2.538	2.536
2.471	2.534	2.545
2.477	2.540	2.547
2.484	2.533	2.560
2.480	2.535	2.553
2.477	2.537	2.553
2.479	2.539	2.554
2.482	2.537	2.554
2.479	2.535	2.551
2.485	2.533	2.557
2.479	2.531	2.560
2.471	2.535	2.567
2.470	2.530	2.562
2.472	2.531	2.550
2.469	2.533	2.530
2.469	2.534	2.530
2.463	2.535	2.523
2.470	2.541	2.521
2.468	2.534	2.513
2.470	2.536	2.512
2.462	2.535	2.516
2.465	2.537	2.532
2.467	2.533	2.535
2.467	2.538	2.541
2.469	2.538	2.548
2.469	2.540	2.547
2.475	2.535	2.545
2.478	2.538	2.539
2.473	2.528	2.532
2.476	2.536	2.531
2.475	2.541	2.548
2.473	2.536	2.550
2.472	2.531	2.550
2.469	2.535	2.561
2.474	2.540	2.570
2.470	2.540	2.570
2.471	2.530	2.573
2.474	2.538	2.580
2.470	2.537	2.587
2.472	2.541	2.591
2.477	2.538	2.597
2.482	2.539	2.618
2.484	2.533	2.624
2.480	2.542	2.611
2.479	2.539	2.598
2.480	2.538	2.561
2.478	2.539	2.560
2.481	2.541	2.562
2.485	2.532	2.561
2.479	2.538	2.549
2.489	2.535	2.539
2.487	2.538	2.523
2.487	2.538	2.506
2.487	2.533	2.506
2.488	2.538	2.515
2.469	2.540	2.537
2.472	2.535	2.554
2.480	2.537	2.560
2.479	2.535	2.555
2.477	2.540	2.559
2.477	2.540	2.554
2.472	2.535	2.541
2.474	2.535	2.522
2.480	2.540	2.521
2.477	2.542	2.519
2.481	2.540	2.512
2.482	2.543	2.503
2.477	2.540	2.501
2.480	2.540	2.504
2.477	2.529	2.517
2.467	2.541	2.522
2.467	2.538	2.515
2.470	2.539	2.516
2.475	2.537	2.520
2.471	2.537	2.529
2.475	2.537	2.545
2.477	2.533	2.540
2.479	2.533	2.531
2.477	2.533	2.525
2.477	2.532	2.523
2.475	2.539	2.525
2.475	2.530	2.523
2.474	2.535	2.525
2.473	2.535	2.524
2.475	2.535	2.531
2.474	2.530	2.552
2.474	2.531	2.560
2.471	2.541	2.554
2.469	2.538	2.537
2.477	2.538	2.524
2.479	2.535	2.515
2.479	2.538	2.511
2.474	2.541	2.511
2.475	2.537	2.515
2.477	2.540	2.523
2.478	2.532	2.532
2.482	2.538	2.532
2.480	2.538	2.525
2.477	2.535	2.521
2.474	2.535	2.525
2.480	2.541	2.540
2.475	2.532	2.541
2.474	2.533	2.540
2.470	2.538	2.532
2.475	2.541	2.525
2.472	2.540	2.522
2.475	2.536	2.518
2.475	2.542	2.515
2.480	2.543	2.514
2.476	2.538	2.511
2.475	2.540	2.535
2.477	2.538	2.539
2.477	2.531	2.537
2.473	2.533	2.523
2.472	2.535	2.523
2.475	2.538	2.523
2.472	2.538	2.525
2.472	2.542	2.532
2.472	2.542	2.536
2.470	2.538	2.530
2.467	2.535	2.522
2.472	2.538	2.520
2.470	2.541	2.513
2.470	2.538	2.519
2.467	2.538	2.520
2.467	2.533	2.517
2.467	2.533	2.521
2.470	2.530	2.533
2.470	2.536	2.537
2.467	2.536	2.532
2.470	2.530	2.534
2.470	2.536	2.528
2.469	2.531	2.528
2.470	2.538	2.526
2.469	2.541	2.525
2.464	2.540	2.530
2.464	2.535	2.532
2.465	2.532	2.524
2.466	2.527	2.513
2.470	2.541	2.506
2.467	2.537	2.515
2.472	2.540	2.521
2.473	2.541	2.520
2.470	2.540	2.526
2.469	2.535	2.528
2.469	2.533	2.540
2.473	2.535	2.549
2.472	2.539	2.559
2.473	2.540	2.552
2.470	2.540	2.548
2.472	2.538	2.552
2.473	2.531	2.555
2.470	2.541	2.544
2.469	2.539	2.545
2.477	2.538	2.549
2.476	2.534	2.550
2.469	2.535	2.545
2.470	2.538	2.541
2.465	2.539	2.540
2.470	2.533	2.546
2.470	2.538	2.562
2.470	2.538	2.567
2.474	2.538	2.574
2.470	2.538	2.564
2.470	2.538	2.557
2.466	2.537	2.552
2.472	2.537	2.545
2.475	2.535	2.538
2.477	2.541	2.537
2.482	2.540	2.538
2.477	2.538	2.538
2.477	2.540	2.532
2.478	2.541	2.522
2.476	2.538	2.518
2.475	2.540	2.508
2.472	2.541	2.500
2.467	2.538	2.497
2.464	2.535	2.492
2.467	2.544	2.484
2.473	2.553	2.478
2.467	2.541	2.486
2.470	2.537	2.501
2.463	2.538	2.520
2.463	2.535	2.528
2.462	2.537	2.530
2.455	2.540	2.538
2.465	2.540	2.547
2.474	2.540	2.550
2.478	2.538	2.555
2.472	2.539	2.560
2.470	2.537	2.572
2.473	2.542	2.572
2.468	2.536	2.562
2.469	2.540	2.560
2.467	2.535	2.559
2.469	2.538	2.555
2.474	2.543	2.568
2.470	2.541	2.584
2.473	2.540	2.598
2.475	2.542	2.607
2.473	2.540	2.613
2.473	2.540	2.608
2.472	2.549	2.587
2.477	2.538	2.571
2.480	2.535	2.557
2.477	2.540	2.536
2.479	2.540	2.552
2.477	2.538	2.552
2.475	2.540	2.559
2.478	2.537	2.565
2.478	2.542	2.562
2.484	2.540	2.567
2.482	2.541	2.573
2.484	2.540	2.579
2.477	2.538	2.575
2.479	2.544	2.570
2.482	2.547	2.577
2.472	2.540	2.577
2.475	2.540	2.577
2.479	2.540	2.565
2.479	2.534	2.555
2.475	2.537	2.550
2.477	2.544	2.552
2.477	2.542	2.557
2.481	2.541	2.558
2.479	2.543	2.555
2.485	2.543	2.551
2.483	2.542	2.555
2.487	2.543	2.559
2.482	2.542	2.585
2.487	2.540	2.591
2.489	2.545	2.585
2.492	2.545	2.567
2.491	2.545	2.550
2.484	2.545	2.540
2.482	2.540	2.542
2.485	2.541	2.555
2.485	2.545	2.560
2.487	2.543	2.561
2.477	2.550	2.562
2.475	2.548	2.567
2.479	2.547	2.580
2.473	2.545	2.580
2.482	2.548	2.574
2.487	2.543	2.580
2.484	2.548	2.571
2.484	2.550	2.556
2.482	2.542	2.556
2.492	2.545	2.556
2.489	2.548	2.560
2.489	2.546	2.569
2.484	2.544	2.587
2.484	2.551	2.588
2.492	2.542	2.594
2.488	2.540	2.604
2.498	2.543	2.609
2.494	2.548	2.612
2.487	2.545	2.591
2.487	2.542	2.575
2.482	2.547	2.574
2.483	2.545	2.570
2.480	2.540	2.567
2.482	2.543	2.569
2.486	2.545	2.564
2.484	2.546	2.562
2.492	2.538	2.561
2.489	2.545	2.562
2.494	2.539	2.570
2.484	2.543	2.565
2.491	2.542	2.564
2.487	2.540	2.585
2.494	2.547	2.580
2.492	2.547	2.570
2.487	2.545	2.564
2.487	2.545	2.557
2.494	2.545	2.556
2.489	2.551	2.562
2.489	2.554	2.560
2.480	2.543	2.553
2.482	2.542	2.532
2.494	2.538	2.530
2.493	2.535	2.531
2.488	2.542	2.531
2.497	2.542	2.523
2.487	2.550	2.520
2.495	2.545	2.517
2.489	2.547	2.520
2.491	2.546	2.532
2.494	2.544	2.539
2.499	2.542	2.544
2.500	2.546	2.560
2.501	2.545	2.572
2.499	2.547	2.572
2.496	2.546	2.572
2.495	2.545	2.574
2.494	2.540	2.572
2.491	2.545	2.572
2.487	2.545	2.557
2.492	2.542	2.542
2.492	2.547	2.535
2.494	2.542	2.538
2.492	2.541	2.531
2.489	2.538	2.530
2.490	2.542	2.528
2.486	2.542	2.518
2.487	2.548	2.525
2.489	2.542	2.527
2.489	2.542	2.535
2.488	2.544	2.541
2.481	2.548	2.544
2.484	2.548	2.551
2.487	2.545	2.536
2.482	2.548	2.540
2.477	2.549	2.544
2.476	2.543	2.541
2.480	2.545	2.550
2.477	2.545	2.565
2.475	2.545	2.569
2.471	2.552	2.558
2.471	2.545	2.545
2.477	2.542	2.535
2.483	2.546	2.526
2.477	2.540	2.515
2.476	2.548	2.508
2.474	2.543	2.508
2.477	2.546	2.526
2.475	2.538	2.537
2.473	2.548	2.540
2.471	2.547	2.534
2.477	2.546	2.530
2.483	2.545	2.525
2.480	2.552	2.517
2.474	2.547	2.525
2.479	2.548	2.517
2.479	2.545	2.513
2.478	2.545	2.497
2.481	2.548	2.501
2.473	2.549	2.506
2.477	2.542	2.498
2.482	2.540	2.478
2.480	2.547	2.468
2.474	2.542	2.469
2.474	2.547	2.479
2.478	2.548	2.488
2.480	2.543	2.501
2.476	2.543	2.508
2.469	2.548	2.510
2.470	2.547	2.516
2.474	2.544	2.515
2.474	2.544	2.515
2.476	2.546	2.523
2.475	2.550	2.523
2.470	2.550	2.507
2.472	2.544	2.496
2.475	2.547	2.493
2.471	2.544	2.491
2.470	2.545	2.481
2.472	2.540	2.474
2.472	2.547	2.473
2.479	2.547	2.486
2.477	2.549	2.503
2.479	2.541	2.523
2.473	2.540	2.526
2.473	2.540	2.523
2.467	2.548	2.525
2.472	2.546	2.531
2.470	2.550	2.539
2.467	2.547	2.549
2.464	2.544	2.547
2.467	2.550	2.536
2.470	2.551	2.538
2.471	2.545	2.542
2.467	2.543	2.553
2.465	2.540	2.569
2.470	2.544	2.576
2.470	2.539	2.572
2.465	2.540	2.552
2.467	2.542	2.557
2.469	2.540	2.555
2.467	2.540	2.554
2.470	2.540	2.550
2.468	2.543	2.553
2.464	2.543	2.550
2.462	2.543	2.552
2.470	2.541	2.542
2.472	2.543	2.552
2.477	2.551	2.540
2.470	2.539	2.535
2.469	2.545	2.539
2.473	2.545	2.552
2.471	2.542	2.547
2.469	2.541	2.542
2.467	2.550	2.535
2.467	2.547	2.518
2.467	2.540	2.516
2.472	2.542	2.518
2.475	2.548	2.520
2.470	2.540	2.531
2.470	2.549	2.538
2.469	2.546	2.534
2.461	2.545	2.526
2.467	2.543	2.522
2.472	2.548	2.520
2.464	2.552	2.525
2.464	2.550	2.550
2.467	2.547	2.560
2.462	2.548	2.577
2.470	2.546	2.589
2.472	2.550	2.574
2.467	2.548	2.559
2.473	2.549	2.568
2.473	2.548	2.576
2.469	2.539	2.580
2.467	2.545	2.584
2.469	2.550	2.572
2.473	2.550	2.564
2.475	2.547	2.554
2.471	2.547	2.541
2.472	2.542	2.540
2.474	2.545	2.528
2.475	2.548	2.523
2.472	2.548	2.525
2.472	2.546	2.522
2.469	2.544	2.518
2.472	2.535	2.522
2.475	2.542	2.522
2.476	2.544	2.527
2.473	2.548	2.539
2.472	2.542	2.557
2.470	2.543	2.577
2.474	2.547	2.584
2.477	2.548	2.596
2.479	2.547	2.600
2.487	2.540	2.594
2.475	2.540	2.575
2.477	2.541	2.574
2.476	2.539	2.560
2.482	2.546	2.557
2.479	2.543	2.552
2.479	2.543	2.555
2.475	2.545	2.547
2.482	2.548	2.540
2.480	2.548	2.540
2.480	2.547	2.532
2.474	2.548	2.550
2.470	2.543	2.557
2.474	2.543	2.564
2.475	2.544	2.562
2.475	2.540	2.537
2.474	2.543	2.537
2.479	2.542	2.537
2.472	2.540	2.532
2.472	2.545	2.531
2.469	2.545	2.530
2.473	2.547	2.539
2.475	2.540	2.559
2.472	2.535	2.558
2.468	2.546	2.572
2.466	2.546	2.567
2.469	2.546	2.557
2.467	2.548	2.555
2.470	2.540	2.539
2.470	2.541	2.545
2.467	2.540	2.549
2.462	2.543	2.561
2.460	2.541	2.547
2.470	2.541	2.542
2.469	2.544	2.551
2.470	2.545	2.554
2.467	2.543	2.542
2.457	2.544	2.534
2.457	2.540	2.532
2.463	2.542	2.532
2.460	2.541	2.541
2.464	2.541	2.532
2.465	2.543	2.524
2.467	2.546	2.523
2.460	2.539	2.526
2.467	2.544	2.527
2.460	2.544	2.526
2.464	2.542	2.517
2.470	2.542	2.514
2.470	2.541	2.527
2.472	2.546	2.533
2.470	2.539	2.536
2.467	2.539	2.541
2.463	2.548	2.544
2.457	2.547	2.558
2.467	2.540	2.557
2.467	2.545	2.559
2.470	2.542	2.581
2.465	2.548	2.596
2.467	2.545	2.605
2.470	2.543	2.602
2.467	2.543	2.595
2.465	2.542	2.599
2.462	2.544	2.587
2.462	2.536	2.579
2.457	2.540	2.574
2.462	2.542	2.557
2.459	2.540	2.558
2.460	2.542	2.559
2.465	2.541	2.550
2.459	2.540	2.551
2.465	2.540	2.544
2.465	2.542	2.549
2.465	2.545	2.545
2.464	2.540	2.535
2.463	2.543	2.545
2.455	2.536	2.536
2.457	2.541	2.532
2.460	2.540	2.531
2.462	2.542	2.522
2.458	2.542	2.527
2.457	2.542	2.518
2.457	2.544	2.513
2.465	2.545	2.517
2.460	2.537	2.520
2.454	2.540	2.522
2.462	2.539	2.525
2.467	2.536	2.530
2.469	2.539	2.536
2.466	2.540	2.542
2.467	2.545	2.547
2.470	2.535	2.555
2.474	2.550	2.560
2.470	2.540	2.581
2.476	2.543	2.589
2.474	2.541	2.599
2.465	2.546	2.594
2.465	2.540	2.587
2.462	2.541	2.575
2.467	2.540	2.572
2.462	2.542	2.567
2.462	2.540	2.559
2.456	2.545	2.567
2.456	2.537	2.574
